time	accelx	accely	accelz
0.0000	0.0173	0.1741	9.5467
0.0100	0.0173	0.1603	9.6670
0.0200	0.0048	0.1825	9.7334
0.0300	-0.1501	0.1801	9.6759
0.0400	0.0401	0.1597	9.7136
0.0500	0.0275	0.1771	9.7118
0.0600	0.0497	0.1717	9.6783
0.0700	0.0030	0.2937	9.6945
0.0800	0.0036	0.1771	9.7052
0.0900	0.0144	0.1681	9.6825
0.1000	0.0239	0.1687	9.7052
0.1100	0.0078	0.1561	9.6957
0.1200	0.0215	0.1490	9.7112
0.1300	0.0156	0.1633	9.6670
0.1400	0.0263	0.1681	9.6664
0.1500	0.0138	0.1454	9.6843
0.1600	0.0120	0.1639	9.6670
0.1700	-0.0012	0.1675	9.6813
0.1800	0.0227	0.1627	9.7190
0.1900	-0.0054	0.1956	9.6837
0.2000	0.0377	0.1597	9.6927
0.2100	0.0562	0.1795	9.7268
0.2200	0.0299	0.1735	9.6610
0.2300	0.0341	0.1825	9.6963
0.2400	0.0126	0.1663	9.6957
0.2500	0.0102	0.1663	9.6580
0.2600	0.0000	0.1693	9.6933
0.2700	-0.0060	0.1777	9.7304
0.2800	0.0096	0.1813	9.6849
0.2900	0.0102	0.1657	9.6969
0.3000	0.0311	0.1645	9.6933
0.3100	0.0150	0.1400	9.7005
0.3200	0.0191	0.1639	9.7130
0.3300	0.0227	0.1627	9.6921
0.3400	0.0233	0.1657	9.6981
0.3500	-0.0203	0.1705	9.7011
0.3600	0.0544	0.1819	9.7022
0.3700	0.0167	0.1663	9.6999
0.3800	0.0197	0.1657	9.6813
0.3900	0.0281	0.1741	9.6556
0.4000	0.0144	0.1615	9.7052
0.4100	0.0317	0.1591	9.6945
0.4200	0.0012	0.1657	9.6855
0.4300	0.0239	0.1609	9.6676
0.4400	0.0317	0.1627	9.7190
0.4500	0.0126	0.1777	9.6813
0.4600	0.0191	0.1597	9.7016
0.4700	0.0114	0.1633	9.6975
0.4800	0.0096	0.1669	9.7005
0.4900	0.0144	0.1579	9.6861
0.5000	0.0257	0.1358	9.7381
0.5100	-0.0024	0.1729	9.7034
0.5200	0.0114	0.1663	9.7256
0.5300	0.0173	0.1699	9.6293
0.5400	0.0132	0.1639	9.6921
0.5500	0.0556	0.1555	9.6933
0.5600	0.0257	0.1645	9.6951
0.5700	0.0108	0.1454	9.7471
0.5800	0.0323	0.1842	9.7022
0.5900	-0.1358	0.1729	9.6861
0.6000	0.0132	0.1974	9.7130
0.6100	0.0156	0.1591	9.6783
0.6200	0.0209	0.1866	9.6634
0.6300	0.0245	0.1735	9.6981
0.6400	0.0132	0.1555	9.6646
0.6500	0.0215	0.1699	9.7082
0.6600	0.0305	0.1848	9.6903
0.6700	0.0215	0.1771	9.7052
0.6800	0.0197	0.1699	9.7136
0.6900	-0.0030	0.1687	9.6735
0.7000	0.0120	0.1591	9.7166
0.7100	0.0006	0.1705	9.6885
0.7200	0.0120	0.1621	9.6915
0.7300	0.0239	0.1645	9.7274
0.7400	0.0197	0.1651	9.7328
0.7500	0.0036	0.1938	9.7292
0.7600	0.0263	0.1819	9.7232
0.7700	0.0126	0.1807	9.6759
0.7800	0.0239	0.1836	9.6819
0.7900	0.0305	0.1567	9.6520
0.8000	-0.0150	0.1747	9.6903
0.8100	0.0311	0.1783	9.6981
0.8200	0.0371	0.1675	9.6795
0.8300	0.0144	0.1980	9.6897
0.8400	0.0084	0.1717	9.7202
0.8500	-0.0054	0.1747	9.6777
0.8600	0.0156	0.1621	9.7244
0.8700	0.0233	0.1693	9.6622
0.8800	0.0203	0.1412	9.6849
0.8900	0.0108	0.1687	9.7028
0.9000	0.0102	0.1783	9.7011
0.9100	0.0305	0.1735	9.7076
0.9200	0.0156	0.1669	9.6801
0.9300	0.0126	0.1693	9.6759
0.9400	0.0042	0.1478	9.6849
0.9500	0.0353	0.1472	9.6855
0.9600	0.0000	0.1484	9.6765
0.9700	0.0257	0.1669	9.6945
0.9800	0.0257	0.1322	9.7256
0.9900	0.0102	0.1699	9.7435
1.0000	0.0407	0.1705	9.7238
1.0100	0.0347	0.1615	9.6807
1.0200	0.0305	0.1645	9.6729
1.0300	-0.0120	0.1747	9.7070
1.0400	0.0120	0.0018	9.7423
1.0500	-0.0138	0.1711	9.7094
1.0600	0.0018	0.1591	9.6915
1.0700	0.0359	0.1585	9.7112
1.0800	0.0144	0.1591	9.6975
1.0900	0.0144	0.1783	9.6699
1.1000	0.0293	0.1687	9.6885
1.1100	-0.1376	0.1645	9.6568
1.1200	0.0048	0.1789	9.6807
1.1300	0.0353	0.1842	9.6993
1.1400	-0.0126	0.1579	9.6843
1.1500	0.0078	0.1699	9.6915
1.1600	0.0144	0.1687	9.7184
1.1700	0.0299	0.1657	9.6831
1.1800	0.0162	0.1585	9.7381
1.1900	0.0329	0.1687	9.6927
1.2000	0.0383	0.1525	9.6652
1.2100	0.0150	0.1687	9.6813
1.2200	0.0191	0.1549	9.7268
1.2300	0.0377	0.1603	9.7399
1.2400	0.0383	0.1639	9.6945
1.2500	0.0467	0.1735	9.6771
1.2600	0.0150	0.1501	9.7106
1.2700	0.0096	0.1519	9.6789
1.2800	0.0239	0.1591	9.7286
1.2900	0.0293	0.1711	9.7011
1.3000	0.0162	0.1675	9.6652
1.3100	0.0221	0.1645	9.7256
1.3200	0.0293	0.1729	9.7112
1.3300	0.0377	0.1741	9.6640
1.3400	0.0293	0.1454	9.7058
1.3500	0.0066	0.1651	9.7011
1.3600	-0.0060	0.1878	9.6843
1.3700	-0.0030	0.1573	9.6927
1.3800	-0.1250	0.1741	9.6652
1.3900	0.0263	0.1687	9.7136
1.4000	0.0191	0.1890	9.6903
1.4100	0.0209	0.1777	9.6909
1.4200	0.0323	0.1663	9.7202
1.4300	0.0018	0.1705	9.7040
1.4400	0.0006	0.1675	9.6867
1.4500	0.0221	0.1663	9.7046
1.4600	0.0311	0.1759	9.6861
1.4700	0.0197	0.1693	9.7250
1.4800	0.0167	0.1621	9.6951
1.4900	0.0144	0.1603	9.6586
1.5000	0.0323	0.1639	9.7034
1.5100	0.0126	0.1681	9.7070
1.5200	0.0185	0.1561	9.7238
1.5300	0.0203	0.1825	9.6933
1.5400	0.0114	0.1825	9.6945
1.5500	0.0185	0.1627	9.6921
1.5600	0.0102	0.1789	9.6825
1.5700	-0.0173	0.1657	9.6825
1.5800	0.0030	0.0221	9.6873
1.5900	0.0275	0.1579	9.6981
1.6000	0.0006	0.1651	9.6903
1.6100	0.0096	0.1555	9.7585
1.6200	0.0096	0.1717	9.6783
1.6300	0.0024	0.1771	9.7082
1.6400	0.0060	0.1789	9.6813
1.6500	0.0203	0.1693	9.7196
1.6600	0.0341	0.1657	9.6891
1.6700	0.0018	0.1699	9.6717
1.6800	0.0096	0.1759	9.7268
1.6900	0.0150	0.1729	9.6801
1.7000	0.0138	0.1687	9.7046
1.7100	0.0162	0.1777	9.7118
1.7200	0.0078	0.1747	9.6837
1.7300	0.0066	0.1555	9.6843
1.7400	0.0215	0.1639	9.6741
1.7500	0.0162	0.1687	9.6705
1.7600	0.0138	0.1854	9.7268
1.7700	0.0305	0.1454	9.7106
1.7800	0.0365	0.1675	9.7016
1.7900	0.0389	0.1717	9.7513
1.8000	0.0401	0.1561	9.6813
1.8100	0.0030	0.1621	9.6939
1.8200	0.0012	0.1765	9.6993
1.8300	0.0185	0.1609	9.6394
1.8400	0.0078	0.1561	9.6885
1.8500	0.0197	0.1848	9.6909
1.8600	0.0096	0.1842	9.6867
1.8700	0.0132	0.1603	9.6855
1.8800	0.0179	0.1884	9.6699
1.8900	0.0203	0.1699	9.6927
1.9000	0.0096	0.1848	9.7058
1.9100	0.0167	0.1741	9.7016
1.9200	0.0209	0.1681	9.6951
1.9300	0.0114	0.1687	9.6783
1.9400	0.0233	0.1609	9.7489
1.9500	0.0461	0.1663	9.7154
1.9600	0.0132	0.1735	9.6933
1.9700	0.0066	0.1555	9.6975
1.9800	0.0281	0.1645	9.6562
1.9900	0.0257	0.1651	9.6753
2.0000	-0.0096	0.1687	9.7256
2.0100	0.0353	0.1549	9.6963
2.0200	0.0269	0.1519	9.7034
2.0300	0.0012	0.1705	9.7304
2.0400	0.0138	0.1699	9.6687
2.0500	0.0191	0.1567	9.6777
2.0600	0.0700	0.1579	9.7022
2.0700	0.0221	0.1729	9.6915
2.0800	0.0054	0.1693	9.7011
2.0900	0.0179	0.1854	9.6909
2.1000	0.0054	0.1675	9.7160
2.1100	0.0377	0.1765	9.7064
2.1200	-0.0078	0.1789	9.6508
2.1300	0.0245	0.1531	9.7136
2.1400	0.0078	0.1687	9.6933
2.1500	-0.0233	0.1723	9.6885
2.1600	0.0120	0.1711	9.6801
2.1700	-0.1316	0.1795	9.6741
2.1800	0.0335	0.1753	9.7172
2.1900	0.0287	0.1705	9.6831
2.2000	0.0269	0.1854	9.6783
2.2100	0.0006	0.1633	9.7130
2.2200	0.0215	0.1860	9.6885
2.2300	-0.0042	0.1723	9.6843
2.2400	0.0126	0.1687	9.7256
2.2500	0.0030	0.1759	9.6873
2.2600	0.0311	0.1651	9.7172
2.2700	0.0293	0.1478	9.6681
2.2800	0.0084	0.0060	9.6897
2.2900	0.0233	0.1627	9.6993
2.3000	0.0263	0.1669	9.6855
2.3100	0.0078	0.1842	9.7298
2.3200	0.0126	0.1759	9.6897
2.3300	-0.0245	0.1639	9.6813
2.3400	0.0144	0.1639	9.7022
2.3500	0.0126	0.1974	9.6987
2.3600	0.0197	0.1525	9.6711
2.3700	-0.0197	0.2979	9.7190
2.3800	0.0197	0.1537	9.6957
2.3900	-0.0084	0.1603	9.6670
2.4000	0.0245	0.1358	9.7525
2.4100	0.0162	0.1627	9.6759
2.4200	0.0383	0.1759	9.6592
2.4300	0.0359	0.1621	9.6849
2.4400	0.0173	0.1723	9.6741
2.4500	0.0305	0.1621	9.6891
2.4600	0.0281	0.1842	9.6670
2.4700	0.0084	0.1639	9.6813
2.4800	-0.0084	0.1693	9.6843
2.4900	0.0072	0.1896	9.7070
2.5000	0.0114	0.1573	9.6885
2.5100	0.0491	0.1866	9.6951
2.5200	-0.0006	0.1621	9.6604
2.5300	0.0191	0.1627	9.6819
2.5400	0.0078	0.1663	9.7034
2.5500	0.0335	0.1717	9.6915
2.5600	0.0305	0.1765	9.7573
2.5700	0.0383	0.1585	9.6915
2.5800	0.0514	0.1663	9.7268
2.5900	0.0072	0.1627	9.6855
2.6000	0.0353	0.1801	9.6508
2.6100	0.0048	0.1525	9.6705
2.6200	0.0467	0.1442	9.7250
2.6300	0.0371	0.1801	9.7609
2.6400	0.0167	0.1711	9.6921
2.6500	0.0449	0.1836	9.7160
2.6600	0.0167	0.1848	9.7130
2.6700	0.0287	0.1693	9.7058
2.6800	0.0269	0.1777	9.6981
2.6900	-0.1316	0.1645	9.6472
2.7000	0.0239	0.1681	9.6957
2.7100	0.0239	0.1609	9.7040
2.7200	0.0197	0.1549	9.7046
2.7300	0.0209	0.1585	9.7405
2.7400	0.0281	0.1633	9.6891
2.7500	0.0251	0.1735	9.6897
2.7600	0.0167	0.1795	9.6891
2.7700	0.0209	0.1585	9.6897
2.7800	0.0096	0.1717	9.6855
2.7900	0.0257	0.1609	9.7220
2.8000	0.0203	0.1603	9.6598
2.8100	0.0173	0.1585	9.6921
2.8200	0.0102	0.1681	9.7130
2.8300	0.0287	0.1675	9.6933
2.8400	0.0108	0.1813	9.6999
2.8500	0.0227	0.1585	9.7142
2.8600	0.0185	0.1777	9.6855
2.8700	0.0191	0.1741	9.7226
2.8800	0.0012	0.1513	9.6753
2.8900	0.0341	0.1591	9.6951
2.9000	0.0383	0.1729	9.6993
2.9100	0.0257	0.1591	9.6562
2.9200	0.0514	0.1364	9.7005
2.9300	0.0084	0.1537	9.7130
2.9400	-0.0012	0.1627	9.6729
2.9500	0.0281	0.1531	9.7118
2.9600	-0.1071	0.1603	9.6987
2.9700	0.0203	0.1573	9.7160
2.9800	0.0191	0.1573	9.7346
2.9900	0.0162	0.1681	9.7088
3.0000	0.0042	0.1944	9.7118
3.0100	0.0162	0.1807	9.6969
3.0200	0.0221	0.1615	9.6999
3.0300	0.0114	0.1591	9.7016
3.0400	0.0108	0.1759	9.6765
3.0500	0.0209	0.1478	9.7058
3.0600	0.0042	0.1657	9.7058
3.0700	0.0245	0.1747	9.6759
3.0800	0.0287	0.1597	9.7387
3.0900	0.0245	0.1687	9.6652
3.1000	0.0144	0.1777	9.6628
3.1100	0.0293	0.1591	9.6783
3.1200	0.0030	0.1711	9.6855
3.1300	0.0383	0.1717	9.6915
3.1400	0.0335	0.1866	9.6957
3.1500	0.0305	0.1663	9.6957
3.1600	0.0341	0.1842	9.6711
3.1700	0.0030	0.1627	9.7028
3.1800	0.0323	0.1579	9.6789
3.1900	-0.0048	0.1430	9.7465
3.2000	0.0293	0.1735	9.6628
3.2100	0.0102	0.1711	9.7070
3.2200	0.0191	0.1693	9.6909
3.2300	0.0413	0.1866	9.6550
3.2400	0.0150	0.1639	9.6777
3.2500	0.0365	0.1639	9.7028
3.2600	0.0018	0.1717	9.6759
3.2700	0.0239	0.1657	9.6861
3.2800	0.0042	0.1735	9.7268
3.2900	0.0227	0.1645	9.7118
3.3000	0.0293	0.1621	9.6855
3.3100	0.0311	0.1723	9.7262
3.3200	0.0012	0.1507	9.6765
3.3300	0.0167	0.1741	9.7106
3.3400	0.0191	0.1567	9.6885
3.3500	0.0156	0.1597	9.7310
3.3600	0.0191	0.1424	9.6951
3.3700	0.0156	0.1621	9.7184
3.3800	0.0167	0.1573	9.7005
3.3900	0.0191	0.1908	9.6520
3.4000	0.0150	0.1579	9.7214
3.4100	0.0299	0.1627	9.6646
3.4200	0.0191	0.1681	9.7112
3.4300	-0.0030	0.1663	9.6765
3.4400	0.0042	0.1759	9.6741
3.4500	0.0275	0.1466	9.7124
3.4600	0.0173	0.1771	9.6556
3.4700	0.0096	0.1567	9.6867
3.4800	0.0144	0.1825	9.7184
3.4900	0.0185	0.1723	9.6580
3.5000	0.0239	0.1597	9.6993
3.5100	0.0132	0.1597	9.7040
3.5200	0.0221	0.1639	9.7477
3.5300	0.0449	0.1753	9.7022
3.5400	0.0162	0.1753	9.6933
3.5500	0.0209	0.1741	9.7088
3.5600	0.0090	0.1813	9.6723
3.5700	-0.0054	0.1753	9.6460
3.5800	0.0209	0.1591	9.7022
3.5900	-0.0030	0.1848	9.7034
3.6000	0.0365	0.1866	9.7094
3.6100	0.0425	0.1567	9.6867
3.6200	0.0413	0.1908	9.6921
3.6300	0.0096	0.1591	9.6945
3.6400	0.0305	0.1615	9.6867
3.6500	0.0227	0.1484	9.6855
3.6600	0.0108	0.1603	9.7052
3.6700	0.0090	0.1711	9.7142
3.6800	0.0263	0.1836	9.7286
3.6900	0.0239	0.1472	9.7070
3.7000	0.0144	0.1735	9.6777
3.7100	0.0407	0.1549	9.6855
3.7200	0.0102	0.1627	9.6999
3.7300	0.0018	0.1609	9.6795
3.7400	0.0054	0.1555	9.7106
3.7500	0.0090	0.1723	9.7011
3.7600	0.0401	0.1741	9.6753
3.7700	0.0150	0.1645	9.7076
3.7800	0.0317	0.1741	9.6735
3.7900	0.0156	0.1454	9.6999
3.8000	0.0114	0.1561	9.7070
3.8100	0.0239	0.1645	9.7011
3.8200	0.0162	0.1884	9.7011
3.8300	0.0096	0.1645	9.7124
3.8400	-0.1256	0.1777	9.6664
3.8500	0.0156	0.1525	9.6981
3.8600	0.0341	0.1567	9.6514
3.8700	0.0090	0.1633	9.6909
3.8800	0.0191	0.1783	9.7016
3.8900	0.0197	0.1651	9.6496
3.9000	0.0156	0.1693	9.6957
3.9100	-0.0018	0.1675	9.7136
3.9200	0.0413	0.1693	9.7106
3.9300	0.0150	0.1663	9.6897
3.9400	-0.0024	0.1579	9.6945
3.9500	0.0132	0.1830	9.6341
3.9600	0.0072	0.1627	9.7130
3.9700	0.0108	0.1836	9.6873
3.9800	0.0060	0.1585	9.6867
3.9900	0.0060	0.1699	9.6861
4.0000	0.0269	0.1759	9.7190
4.0100	0.0162	0.1573	9.6921
4.0200	0.0132	0.1633	9.6861
4.0300	0.0568	0.1609	9.7052
4.0400	0.0084	0.1609	9.6771
4.0500	0.0281	0.1585	9.7016
4.0600	0.0167	0.1645	9.7136
4.0700	0.0024	0.1603	9.7232
4.0800	0.0221	0.1555	9.6909
4.0900	0.0185	0.1848	9.6311
4.1000	0.0179	0.1717	9.6891
4.1100	-0.1352	0.1711	9.6676
4.1200	0.0060	0.1507	9.6855
4.1300	0.0329	0.1436	9.7196
4.1400	-0.0030	0.1705	9.7208
4.1500	0.0323	0.1681	9.6921
4.1600	0.0341	0.1645	9.7136
4.1700	0.0060	0.1819	9.6993
4.1800	0.0347	0.1651	9.6628
4.1900	0.0287	0.1753	9.7076
4.2000	0.0281	0.1789	9.6664
4.2100	0.0269	0.1609	9.6951
4.2200	0.0293	0.1729	9.7088
4.2300	0.0407	0.1484	9.7244
4.2400	0.0167	0.1561	9.7040
4.2500	0.0150	0.1813	9.6598
4.2600	0.0120	0.1639	9.6909
4.2700	0.0060	0.1651	9.6568
4.2800	0.0114	0.1693	9.6963
4.2900	0.0227	0.1513	9.7088
4.3000	0.0132	0.1801	9.7208
4.3100	0.0066	0.1765	9.6933
4.3200	0.0502	0.1807	9.7357
4.3300	0.0281	0.1819	9.6993
4.3400	0.0251	0.1711	9.6789
4.3500	0.0401	0.1687	9.6819
4.3600	-0.0233	0.1603	9.6741
4.3700	0.0275	0.1675	9.6861
4.3800	0.0150	0.1747	9.6771
4.3900	0.0257	0.1549	9.7160
4.4000	0.0120	0.1729	9.7262
4.4100	0.0275	0.1735	9.6831
4.4200	0.0221	0.1669	9.6981
4.4300	0.0431	0.1741	9.7136
4.4400	0.0066	0.1753	9.7005
4.4500	0.0114	0.1842	9.6909
4.4600	0.0215	0.1783	9.6987
4.4700	0.0377	0.1579	9.6927
4.4800	0.0413	0.1639	9.7028
4.4900	0.0221	0.1687	9.6364
4.5000	0.0227	0.1549	9.6604
4.5100	0.0317	0.1729	9.6897
4.5200	-0.0102	0.1669	9.6741
4.5300	0.0162	0.1657	9.6897
4.5400	0.0215	0.1657	9.7082
4.5500	0.0036	0.1807	9.7052
4.5600	0.0383	0.1609	9.7178
4.5700	0.0502	0.1717	9.7016
4.5800	0.0108	0.1759	9.7214
4.5900	0.0395	0.1466	9.6981
4.6000	0.0233	0.1693	9.6903
4.6100	0.0144	0.1735	9.6987
4.6200	0.0269	0.1741	9.7202
4.6300	0.0413	0.1609	9.7268
4.6400	0.0185	0.1645	9.6891
4.6500	0.0209	0.1699	9.6897
4.6600	0.0371	0.1501	9.6945
4.6700	0.0132	0.1567	9.6652
4.6800	0.0257	0.1789	9.6981
4.6900	0.0156	0.1819	9.7112
4.7000	0.0167	0.1579	9.7232
4.7100	0.0275	0.1555	9.6729
4.7200	0.0078	0.1687	9.7286
4.7300	0.0197	0.1657	9.6801
4.7400	0.0347	0.1669	9.7142
4.7500	0.0233	0.1454	9.7028
4.7600	0.0072	0.1633	9.6825
4.7700	0.0179	0.1747	9.6999
4.7800	0.0281	0.1753	9.6897
4.7900	0.0018	0.1645	9.6921
4.8000	0.0317	0.1513	9.7112
4.8100	0.0329	0.1753	9.6723
4.8200	0.0012	0.1645	9.7070
4.8300	-0.0054	0.1621	9.7064
4.8400	0.0144	0.1807	9.6861
4.8500	0.0179	0.1597	9.6753
4.8600	0.0072	0.1663	9.7082
4.8700	0.0263	0.1807	9.6891
4.8800	0.0162	0.1525	9.6939
4.8900	0.0167	0.1555	9.6921
4.9000	0.0401	0.1609	9.6634
4.9100	-0.0060	0.1531	9.7196
4.9200	0.0281	0.1478	9.7166
4.9300	0.0144	0.1687	9.6849
4.9400	0.0347	0.3045	9.6945
4.9500	0.0156	0.1789	9.7005
4.9600	0.0156	0.1693	9.6861
4.9700	-0.0072	0.1765	9.6759
4.9800	0.0090	0.1753	9.7178
4.9900	-0.0078	0.1669	9.6939
5.0000	0.0090	0.1687	9.7106
5.0100	0.0179	0.1412	9.7016
5.0200	0.0221	0.1717	9.6323
5.0300	0.0221	0.3051	9.6957
5.0400	0.0191	0.1705	9.6478
5.0500	0.0138	0.1699	9.6939
5.0600	0.0221	0.1591	9.6999
5.0700	0.0066	0.1825	9.6705
5.0800	0.0185	0.1579	9.7005
5.0900	-0.0042	0.1669	9.7286
5.1000	0.0144	0.1860	9.6885
5.1100	0.0179	0.1669	9.6951
5.1200	0.0359	0.1914	9.6759
5.1300	0.0156	0.1681	9.6873
5.1400	0.0006	0.1759	9.6933
5.1500	0.0167	0.1675	9.6921
5.1600	0.0162	0.1579	9.7028
5.1700	0.0066	0.1884	9.7022
5.1800	0.0030	0.1830	9.6813
5.1900	-0.0018	0.1807	9.7316
5.2000	0.0335	0.1567	9.7118
5.2100	0.0263	0.1609	9.6544
5.2200	0.0078	0.1639	9.6957
5.2300	0.0269	0.1639	9.6927
5.2400	-0.0114	0.1747	9.7034
5.2500	0.0311	0.1669	9.6969
5.2600	0.0126	0.1789	9.6735
5.2700	0.0197	0.1723	9.6843
5.2800	0.0221	0.1609	9.6855
5.2900	-0.0036	0.1681	9.7028
5.3000	0.0114	0.1633	9.6729
5.3100	-0.0162	0.1681	9.6556
5.3200	0.0311	0.1424	9.6921
5.3300	0.0233	0.1543	9.7005
5.3400	0.0185	0.1579	9.6879
5.3500	0.0233	0.1753	9.6813
5.3600	0.0042	0.1663	9.6717
5.3700	0.0030	0.1621	9.6586
5.3800	-0.0036	0.1896	9.6765
5.3900	0.0179	0.1836	9.7244
5.4000	0.0293	0.1621	9.6897
5.4100	0.0072	0.1400	9.6981
5.4200	0.0269	0.1848	9.7304
5.4300	0.0293	0.1639	9.6855
5.4400	0.0156	0.1836	9.6747
5.4500	0.0215	0.1777	9.7100
5.4600	0.0317	0.1747	9.6921
5.4700	-0.0012	0.1615	9.6628
5.4800	-0.0066	0.1687	9.7357
5.4900	0.0179	0.1621	9.7076
5.5000	0.0179	0.1567	9.7447
5.5100	0.0203	0.1657	9.7316
5.5200	0.0275	0.1741	9.6771
5.5300	0.0173	0.1424	9.6855
5.5400	0.0287	0.1645	9.6903
5.5500	0.0293	0.0012	9.7238
5.5600	0.0096	0.1561	9.6813
5.5700	0.0323	0.1819	9.7088
5.5800	0.0281	0.1687	9.7016
5.5900	0.0371	0.1759	9.6927
5.6000	0.0132	0.1759	9.6723
5.6100	0.0221	0.1801	9.6939
5.6200	0.0215	0.1501	9.6897
5.6300	0.0287	0.1687	9.6993
5.6400	0.0269	0.1759	9.7214
5.6500	0.0156	0.1819	9.6670
5.6600	0.0257	0.1609	9.7346
5.6700	0.0335	0.1513	9.7357
5.6800	0.0179	0.1872	9.7118
5.6900	0.0389	0.1693	9.6951
5.7000	0.0329	0.1735	9.6855
5.7100	0.0060	0.1771	9.6765
5.7200	0.0150	0.1591	9.6903
5.7300	0.0060	0.1908	9.6837
5.7400	0.0090	0.1765	9.6903
5.7500	0.0323	0.1651	9.7094
5.7600	0.0305	0.1735	9.6023
5.7700	0.0090	0.1460	9.6921
5.7800	0.0514	0.1896	9.6837
5.7900	0.0120	0.1567	9.7040
5.8000	0.0185	0.1561	9.6951
5.8100	0.0126	0.1819	9.7070
5.8200	0.0215	0.1675	9.7244
5.8300	0.0167	0.1693	9.7124
5.8400	0.0365	0.1699	9.7124
5.8500	0.0335	0.1603	9.6783
5.8600	0.0006	0.1711	9.7088
5.8700	0.0060	0.1741	9.6628
5.8800	-0.0024	0.1621	9.7058
5.8900	0.0269	0.1926	9.7190
5.9000	0.0221	0.1585	9.7160
5.9100	0.0245	0.1807	9.7447
5.9200	-0.0030	0.1807	9.6424
5.9300	0.0239	0.1693	9.6993
5.9400	0.0120	0.1723	9.6897
5.9500	0.0126	0.1645	9.6885
5.9600	0.0126	0.1591	9.7184
5.9700	0.0221	0.1394	9.6825
5.9800	0.0191	0.1854	9.7112
5.9900	0.0048	0.1669	9.7046
6.0000	0.0233	0.1651	9.6777
6.0100	0.0263	0.1741	9.7244
6.0200	0.0054	0.1747	9.7016
6.0300	0.0024	0.1717	9.7268
6.0400	0.0102	0.1896	9.7058
6.0500	-0.0024	0.1783	9.6885
6.0600	0.0299	0.1759	9.7268
6.0700	0.0102	0.1699	9.6711
6.0800	0.0144	0.1699	9.6915
6.0900	0.0102	0.1693	9.6981
6.1000	0.0054	0.1651	9.6699
6.1100	0.0030	0.1555	9.6945
6.1200	0.0383	0.1741	9.7166
6.1300	0.0281	0.1741	9.6861
6.1400	0.0084	0.1621	9.7112
6.1500	0.0042	0.1842	9.6580
6.1600	0.0215	0.1621	9.7172
6.1700	0.0042	0.1735	9.6687
6.1800	0.0096	0.1657	9.6867
6.1900	0.0532	0.1854	9.7058
6.2000	0.0120	0.1836	9.6969
6.2100	0.0275	0.1591	9.7052
6.2200	-0.0006	0.1830	9.6927
6.2300	0.0215	0.1801	9.6747
6.2400	0.0185	0.1585	9.6813
6.2500	0.0287	0.1615	9.6693
6.2600	-0.0036	0.1681	9.6957
6.2700	0.0293	0.1771	9.7142
6.2800	-0.0066	0.1890	9.6867
6.2900	0.0018	0.1633	9.7100
6.3000	0.0562	0.1531	9.7094
6.3100	0.0221	0.1585	9.6705
6.3200	0.0359	0.1561	9.7016
6.3301	0.0491	0.1813	9.7118
6.3401	0.0162	0.1741	9.6376
6.3501	0.0138	0.1507	9.6987
6.3601	0.0173	0.1663	9.6861
6.3701	0.0060	0.1537	9.7130
6.3801	0.0329	0.1519	9.6753
6.3901	0.0257	0.1729	9.6604
6.4001	0.0167	0.1693	9.6699
6.4101	0.1525	0.1466	9.6897
6.4201	0.0012	0.1896	9.6747
6.4301	0.0347	0.1687	9.7286
6.4401	0.0203	0.1717	9.7160
6.4501	0.0287	0.1376	9.6676
6.4601	0.0299	0.1783	9.6711
6.4701	0.0203	0.1705	9.5503
6.4801	0.0479	0.1693	9.6646
6.4901	0.0120	0.1627	9.6957
6.5001	0.0275	0.1555	9.7322
6.5101	0.0173	0.1687	9.6975
6.5201	0.0042	0.1615	9.7226
6.5301	-0.0078	0.1842	9.6807
6.5401	0.0209	0.1687	9.7429
6.5501	0.0514	0.1513	9.7040
6.5601	0.0144	0.1705	9.6999
6.5701	-0.0090	0.1759	9.6634
6.5801	0.0150	0.1597	9.6927
6.5901	0.0072	0.1687	9.7046
6.6001	0.0036	0.1705	9.6658
6.6101	0.0179	0.1591	9.7064
6.6201	0.0263	0.1854	9.7178
6.6301	0.0359	0.1765	9.6867
6.6401	0.0377	0.1783	9.6717
6.6501	-0.0012	0.1525	9.6927
6.6601	0.0227	0.1549	9.7351
6.6701	0.0066	0.1609	9.6921
6.6801	0.0108	0.1597	9.6795
6.6901	0.0000	0.1693	9.6652
6.7001	0.0239	0.1645	9.7226
6.7101	0.0371	0.1759	9.6945
6.7201	0.0156	0.1729	9.6807
6.7301	0.0562	0.1388	9.7148
6.7401	0.0048	0.1705	9.6963
6.7501	0.0150	0.1729	9.7124
6.7601	0.0251	0.1669	9.6849
6.7701	0.0263	0.1795	9.7064
6.7801	0.0203	0.1735	9.6921
6.7901	0.0185	0.1777	9.6891
6.8001	0.0449	0.1681	9.6496
6.8101	0.0138	0.1585	9.7100
6.8201	0.0012	0.1681	9.6759
6.8301	0.0162	0.1836	9.7022
6.8401	0.0078	0.1597	9.7214
6.8501	0.0179	0.1597	9.6957
6.8601	0.0233	0.1687	9.7184
6.8701	-0.0060	0.1777	9.6831
6.8801	0.0329	0.1753	9.6867
6.8901	0.0102	0.1669	9.6837
6.9001	0.0120	0.1723	9.6927
6.9101	0.0018	0.1669	9.7058
6.9201	0.0120	0.1759	9.6915
6.9301	0.0245	0.1519	9.7363
6.9401	0.0132	0.1507	9.6909
6.9501	0.0126	0.1567	9.6885
6.9601	0.0257	0.1669	9.6586
6.9701	0.0179	0.1878	9.6670
6.9801	0.0227	0.1777	9.6825
6.9901	0.0431	0.1836	9.7124
7.0001	0.0078	0.1920	9.7477
7.0101	0.0293	0.1777	9.7112
7.0201	0.0209	0.1819	9.6634
7.0301	0.0108	0.1657	9.6765
7.0401	0.0227	0.1519	9.6598
7.0501	0.0144	0.1639	9.7034
7.0601	0.0072	0.1819	9.6975
7.0701	0.0239	0.1472	9.7160
7.0801	0.0341	0.1717	9.6873
7.0901	0.0730	0.1860	9.7310
7.1001	0.0114	0.1675	9.6921
7.1101	0.0215	0.1633	9.6825
7.1201	0.0066	0.1693	9.6897
7.1301	0.0156	0.1801	9.6729
7.1401	-0.0018	0.1717	9.7160
7.1501	0.0263	0.1699	9.7005
7.1601	0.0293	0.1717	9.7148
7.1701	0.0365	0.1777	9.6825
7.1801	0.0455	0.1842	9.7016
7.1901	0.0251	0.1723	9.6987
7.2001	0.0185	0.1597	9.6664
7.2101	-0.0072	0.1819	9.7076
7.2201	0.0275	0.1585	9.7088
7.2301	0.0227	0.1759	9.6987
7.2401	0.0251	0.1741	9.7028
7.2501	0.0431	0.1771	9.7286
7.2601	0.0185	0.1693	9.6628
7.2701	0.0353	0.1573	9.6777
7.2801	0.0185	0.1854	9.7076
7.2901	0.0209	0.1573	9.6903
7.3001	0.0167	0.1866	9.6903
7.3101	0.0191	0.1591	9.6969
7.3201	0.0281	0.1860	9.6891
7.3301	0.0120	0.1585	9.7166
7.3401	0.0078	0.1854	9.7106
7.3501	0.0162	0.1753	9.6795
7.3601	0.0305	0.1507	9.7064
7.3701	0.0162	0.1633	9.6765
7.3801	0.0167	0.1549	9.6963
7.3901	0.0245	0.1836	9.7106
7.4001	0.0084	0.1789	9.6837
7.4101	0.0209	0.1669	9.7334
7.4201	0.0377	0.1735	9.6951
7.4301	0.0341	0.1418	9.6771
7.4401	0.0251	0.1567	9.6897
7.4501	0.0126	0.1741	9.6963
7.4601	0.0054	0.1807	9.6927
7.4701	0.0275	0.1693	9.6670
7.4801	0.0335	0.1854	9.6855
7.4901	0.0227	0.1669	9.6975
7.5001	0.0257	0.1813	9.7040
7.5101	0.0389	0.1645	9.7184
7.5201	0.0497	0.1430	9.6819
7.5301	0.0185	0.1729	9.6897
7.5401	-0.0150	0.1543	9.6771
7.5501	0.0150	0.1765	9.6915
7.5601	-0.1274	0.1801	9.7130
7.5701	0.0461	0.1872	9.7082
7.5801	0.0353	0.1783	9.6664
7.5901	0.0179	0.1765	9.7094
7.6001	0.0144	0.1687	9.6879
7.6101	0.0443	0.1346	9.7537
7.6201	0.0251	0.1890	9.6855
7.6301	0.0132	0.1765	9.7005
7.6401	0.0144	0.1681	9.6969
7.6501	0.0173	0.1460	9.7005
7.6601	0.0449	0.1657	9.6723
7.6701	0.0138	0.1711	9.6879
7.6801	0.0138	0.1609	9.6747
7.6901	0.0114	0.1705	9.6687
7.7001	0.0227	0.1669	9.7334
7.7101	0.0138	0.1735	9.6783
7.7201	0.0042	0.1651	9.6729
7.7301	-0.0024	0.1501	9.6777
7.7401	0.0185	0.1723	9.6598
7.7501	0.0215	0.1609	9.7124
7.7601	0.0455	0.1807	9.6699
7.7701	0.0281	0.1555	9.6921
7.7801	0.0150	0.1478	9.6951
7.7901	0.0568	0.1669	9.7256
7.8001	0.0185	0.1537	9.6963
7.8101	0.0042	0.1687	9.7082
7.8201	0.0185	0.1579	9.6861
7.8301	0.0269	0.1567	9.6472
7.8401	-0.0179	0.1723	9.7154
7.8501	0.0395	0.1633	9.7058
7.8601	0.0185	0.1639	9.7250
7.8701	0.0317	0.1573	9.6855
7.8801	0.0419	0.1639	9.7657
7.8901	0.0000	0.1687	9.6891
7.9001	0.0108	0.1765	9.6951
7.9101	0.0383	0.1621	9.6825
7.9201	0.0179	0.1663	9.6693
7.9301	0.0191	0.1627	9.6921
7.9401	0.0287	0.0144	9.6951
7.9501	0.0138	0.1687	9.6933
7.9601	0.0156	0.1645	9.6885
7.9701	0.0329	0.1573	9.6945
7.9801	0.0305	0.1484	9.6741
7.9901	0.0431	0.1759	9.7022
8.0001	0.0353	0.1567	9.6987
8.0101	0.0251	0.1531	9.7076
8.0201	0.0329	0.1639	9.7196
8.0301	0.0233	0.1669	9.6664
8.0401	0.0341	0.1699	9.7196
8.0501	0.0275	0.1585	9.6843
8.0601	0.0072	0.1681	9.6699
8.0701	-0.0042	0.1448	9.6897
8.0801	-0.0209	0.1597	9.6424
8.0901	0.0191	0.1645	9.7184
8.1001	0.0036	0.1436	9.6933
8.1101	0.0162	0.1531	9.6945
8.1201	0.0227	0.1633	9.7387
8.1301	0.0203	0.1633	9.6951
8.1401	0.0227	0.1675	9.6520
8.1501	0.0269	0.1729	9.7274
8.1601	0.0221	0.1555	9.6957
8.1701	0.0251	0.1813	9.6801
8.1801	-0.0036	0.1579	9.6999
8.1901	0.0293	0.1741	9.6759
8.2001	0.0389	0.1603	9.7310
8.2101	0.0407	0.1717	9.6628
8.2201	0.0167	0.1681	9.6538
8.2301	0.0323	0.1591	9.6987
8.2401	0.0060	0.1705	9.6897
8.2501	0.0221	0.1753	9.6999
8.2601	0.0173	0.1765	9.6544
8.2701	0.0179	0.1777	9.6993
8.2801	0.0072	0.0167	9.7082
8.2901	0.0209	0.1615	9.7088
8.3001	0.0329	0.1830	9.6945
8.3101	0.0467	0.1543	9.6819
8.3201	0.0054	0.1669	9.6903
8.3301	0.0162	0.1717	9.7094
8.3401	0.0024	0.1723	9.6897
8.3501	0.0173	0.1860	9.6807
8.3601	0.0323	0.1705	9.7106
8.3701	0.0365	0.1627	9.6795
8.3801	0.0239	0.1645	9.7052
8.3901	0.0335	0.1633	9.6586
8.4001	0.0275	0.1765	9.6867
8.4101	0.0359	0.1807	9.7011
8.4201	0.0084	0.1830	9.6999
8.4301	0.0233	0.1693	9.7082
8.4401	0.0084	0.1633	9.7022
8.4501	0.0299	0.1836	9.6927
8.4601	0.0233	0.1484	9.6945
8.4701	0.0078	0.1693	9.6867
8.4801	0.0353	0.1543	9.7220
8.4901	0.0281	0.1765	9.7334
8.5001	-0.0042	0.1699	9.6753
8.5101	0.0257	0.1759	9.6939
8.5201	0.0437	0.1478	9.7064
8.5301	0.0335	0.1555	9.6717
8.5401	0.0167	0.1723	9.6963
8.5501	0.0251	0.1771	9.6574
8.5601	0.0263	0.1591	9.7112
8.5701	0.0221	0.1699	9.6885
8.5801	0.0185	0.1675	9.6825
8.5901	0.0173	0.1591	9.6891
8.6001	0.0162	0.1998	9.6616
8.6101	0.0209	0.1633	9.7058
8.6201	0.0173	0.1585	9.6825
8.6301	0.0120	0.1555	9.6927
8.6401	0.0263	0.1549	9.7130
8.6501	0.0132	0.1639	9.7172
8.6601	0.0156	0.1555	9.6687
8.6701	0.0084	0.1783	9.6909
8.6801	0.0353	0.1627	9.6975
8.6901	0.0150	0.1801	9.7190
8.7001	0.0138	0.1675	9.6729
8.7101	-0.1472	0.1669	9.6909
8.7201	0.0359	0.1573	9.6915
8.7301	0.0203	0.1603	9.6604
8.7401	-0.0078	0.1633	9.7274
8.7501	0.0090	0.1597	9.7058
8.7601	0.0102	0.1723	9.6855
8.7701	0.0167	0.1525	9.6723
8.7801	0.0203	0.1639	9.6981
8.7901	0.0323	0.1633	9.7011
8.8001	0.0162	0.1609	9.7070
8.8101	0.0179	0.1675	9.6927
8.8201	0.0132	0.1789	9.7005
8.8301	0.0508	0.1848	9.7106
8.8401	0.0191	0.1561	9.6861
8.8501	0.0162	0.1657	9.6711
8.8601	0.0078	0.1783	9.6658
8.8701	-0.1274	0.1693	9.6873
8.8801	0.0467	0.1609	9.7100
8.8901	0.0287	0.1561	9.6975
8.9001	0.0126	0.1705	9.7011
8.9101	0.0167	0.1705	9.7298
8.9201	0.0239	0.1711	9.7011
8.9301	0.0108	0.1729	9.6921
8.9401	0.0359	0.1490	9.6837
8.9501	0.0138	0.1753	9.7082
8.9601	-0.0054	0.1531	9.6927
8.9701	0.0179	0.1669	9.6963
8.9801	0.0126	0.1866	9.6622
8.9901	0.0311	0.1472	9.7310
9.0001	0.0293	0.1645	9.6251
9.0101	-0.0245	0.1585	9.6658
9.0201	0.0078	0.1525	9.6759
9.0301	0.0144	0.1801	9.6945
9.0401	0.0096	0.1460	9.6951
9.0501	0.0048	0.1621	9.6933
9.0601	0.0102	0.1908	9.7011
9.0701	0.0257	0.1842	9.6658
9.0801	0.0120	0.1807	9.6747
9.0901	0.0329	0.1729	9.7082
9.1001	0.0251	0.1657	9.6849
9.1101	0.0006	0.1525	9.7040
9.1201	0.0197	0.1771	9.6945
9.1301	0.0114	0.1519	9.7214
9.1401	-0.1352	0.1711	9.7136
9.1501	0.0233	0.1675	9.7262
9.1601	0.0341	0.1860	9.6676
9.1701	0.0138	0.1693	9.6969
9.1801	0.0239	0.3057	9.7011
9.1901	0.0120	0.1603	9.6717
9.2001	0.0191	0.1657	9.7106
9.2101	-0.0126	0.1741	9.7423
9.2201	0.0000	0.1555	9.6879
9.2301	0.0179	0.1615	9.7070
9.2401	0.0347	0.1789	9.7094
9.2501	0.0126	0.1801	9.6676
9.2601	0.0203	0.1789	9.6586
9.2701	0.0173	0.0167	9.6957
9.2801	-0.0012	0.1609	9.6831
9.2901	0.0203	0.1436	9.6789
9.3001	0.0317	0.1657	9.6993
9.3101	0.0239	0.1549	9.6915
9.3201	0.0221	0.1675	9.6592
9.3301	0.0359	0.1543	9.7076
9.3401	0.0221	0.1573	9.6634
9.3501	0.0329	0.1585	9.7292
9.3601	0.0341	0.1962	9.7011
9.3701	0.0042	0.1789	9.6903
9.3801	0.0413	0.1699	9.7154
9.3901	0.0401	0.1801	9.6514
9.4001	0.0221	0.1825	9.6837
9.4101	0.0072	0.1633	9.6999
9.4201	0.0138	0.1466	9.6783
9.4301	0.0371	0.1848	9.6945
9.4401	0.0347	0.1531	9.7597
9.4501	0.0365	0.1657	9.6771
9.4601	0.0395	0.1860	9.6873
9.4701	0.0323	0.1633	9.6861
9.4801	0.0126	0.1717	9.6418
9.4901	0.0126	0.1561	9.6837
9.5001	0.0084	0.1723	9.6723
9.5101	0.0203	0.1651	9.7052
9.5201	0.0233	0.1729	9.7142
9.5301	-0.0036	0.1651	9.7040
9.5401	0.0138	0.1615	9.6969
9.5501	0.0012	0.1567	9.6915
9.5601	0.0251	0.1795	9.6903
9.5701	0.0329	0.1603	9.6777
9.5801	0.0120	0.1747	9.6693
9.5901	0.0203	0.1723	9.7160
9.6001	0.0233	0.1609	9.7034
9.6101	0.0383	0.1747	9.7256
9.6201	0.0383	0.1729	9.6753
9.6301	0.0257	0.1621	9.7214
9.6401	-0.0006	0.1819	9.6418
9.6501	0.0257	0.1627	9.6939
9.6601	-0.0185	0.1639	9.6346
9.6701	0.0209	0.1675	9.6765
9.6801	0.0066	0.1466	9.7292
9.6901	0.0054	0.1741	9.7202
9.7001	0.0197	0.1819	9.7011
9.7101	0.0377	0.1663	9.7022
9.7201	0.0257	0.1627	9.6969
9.7301	0.0173	0.1645	9.6759
9.7401	0.0156	0.1591	9.6945
9.7501	-0.0203	0.1591	9.7070
9.7601	0.0485	0.1501	9.7005
9.7701	0.0126	0.1639	9.7064
9.7801	0.0389	0.1771	9.6747
9.7901	0.0191	0.1549	9.6999
9.8001	-0.0048	0.1567	9.6729
9.8101	0.0191	0.1789	9.7016
9.8201	0.0054	0.1830	9.6616
9.8301	0.0233	0.1693	9.7052
9.8401	0.0024	0.1842	9.7220
9.8501	0.0102	0.1783	9.7028
9.8601	0.0156	0.1753	9.6831
9.8701	0.0281	0.1681	9.7274
9.8801	0.0191	0.1543	9.6502
9.8901	0.0502	0.1412	9.7070
9.9001	0.0156	0.1753	9.7011
9.9101	-0.0078	0.1615	9.6448
9.9201	0.0012	0.1591	9.7136
9.9301	0.0239	0.1789	9.7316
9.9401	0.0167	0.1615	9.7100
9.9501	0.0185	0.1783	9.6753
9.9601	0.0281	0.1729	9.6939
9.9701	0.0120	0.1819	9.6927
9.9801	-0.0018	0.1657	9.6681
9.9901	0.0185	0.1723	9.6927
10.0001	-0.0197	0.1783	9.7172
10.0101	0.0185	0.1657	9.6969
10.0201	-0.1298	0.1651	9.7208
10.0301	0.0227	0.1675	9.6544
10.0401	0.0245	0.1627	9.6693
10.0501	0.0179	0.1729	9.6987
10.0601	0.0185	0.1717	9.7106
10.0701	0.0239	0.1496	9.7046
10.0801	0.0144	0.1693	9.6963
10.0901	0.0084	0.1777	9.6975
10.1001	-0.0048	0.1699	9.6969
10.1101	0.0120	0.1484	9.6358
10.1201	0.0096	0.1765	9.6741
10.1301	0.0096	0.1501	9.7100
10.1401	0.0245	0.1585	9.6867
10.1501	0.0144	0.1783	9.6981
10.1601	-0.0054	0.1741	9.6891
10.1701	0.0179	0.1675	9.6855
10.1801	0.0431	0.1866	9.6670
10.1901	0.0359	0.1783	9.6741
10.2001	0.0227	0.1753	9.7016
10.2101	-0.0030	0.1597	9.6831
10.2201	0.0108	0.1496	9.7112
10.2301	0.0018	0.1597	9.7579
10.2401	0.0233	0.1705	9.6765
10.2501	0.0096	0.1866	9.6963
10.2601	0.0526	0.1711	9.7005
10.2701	0.0203	0.1986	9.6394
10.2801	0.0323	0.1711	9.7148
10.2901	0.0377	0.1549	9.6915
10.3001	0.0084	0.1496	9.7100
10.3101	0.0144	0.1543	9.7477
10.3201	0.0233	0.1591	9.6969
10.3301	-0.0018	0.1753	9.7136
10.3401	0.0209	0.1759	9.6849
10.3501	0.0126	0.1789	9.6909
10.3601	0.0173	0.1567	9.6783
10.3701	0.0263	0.1268	9.6999
10.3801	0.0024	0.1609	9.6831
10.3901	0.0347	0.1860	9.7334
10.4001	0.0126	0.1789	9.7016
10.4101	0.0126	0.1914	9.6735
10.4201	0.0191	0.1370	9.7112
10.4301	0.0144	0.1783	9.6957
10.4401	0.0203	0.1836	9.6723
10.4501	0.0323	0.1771	9.6957
10.4601	0.0305	0.1639	9.6909
10.4701	0.0144	0.1681	9.7011
10.4801	-0.0024	0.1759	9.7070
10.4901	0.0173	0.1519	9.6951
10.5001	-0.0167	0.1717	9.6717
10.5101	0.0209	0.1651	9.6897
10.5201	0.0197	0.1825	9.6969
10.5301	0.0138	0.1675	9.6711
10.5401	0.0030	0.1711	9.7226
10.5501	0.0084	0.1705	9.7184
10.5601	0.0299	0.1801	9.7429
10.5701	0.0215	0.1573	9.6831
10.5801	0.0048	0.1753	9.7256
10.5901	0.0239	0.1687	9.6795
10.6001	0.0167	0.1956	9.6478
10.6101	0.0341	0.1579	9.6807
10.6201	0.0359	0.1633	9.6885
10.6301	0.0084	0.1519	9.6819
10.6401	0.0167	0.1914	9.6933
10.6501	0.0257	0.1789	9.7328
10.6601	0.0132	0.1717	9.6885
10.6701	0.0209	0.1741	9.6939
10.6801	0.0251	0.1723	9.6855
10.6901	0.0054	0.1789	9.6867
10.7001	-0.0048	0.1663	9.6813
10.7101	0.0102	0.1639	9.6717
10.7201	0.0072	0.1669	9.7094
10.7301	0.0293	0.1597	9.7022
10.7402	0.0197	0.1747	9.6759
10.7502	0.0144	0.1741	9.6687
10.7602	0.0197	0.1627	9.7226
10.7702	-0.0120	0.1771	9.6658
10.7802	0.0209	0.1759	9.6939
10.7902	0.0341	0.1585	9.7118
10.8002	0.0132	0.1753	9.6939
10.8102	0.0150	0.1926	9.7519
10.8202	0.0365	0.1687	9.6687
10.8302	0.0323	0.1597	9.6729
10.8402	0.0156	0.1579	9.7166
10.8502	0.0215	0.1627	9.6867
10.8602	0.0311	0.1729	9.6825
10.8702	0.0269	0.1771	9.6939
10.8802	-0.0018	0.1842	9.7070
10.8902	0.0245	0.1783	9.7022
10.9002	0.0335	0.1765	9.6676
10.9102	0.0144	0.1711	9.6981
10.9202	0.0191	0.1442	9.6867
10.9302	0.0144	0.1735	9.6849
10.9402	0.0156	0.3033	9.7310
10.9502	0.0209	0.1747	9.6957
10.9602	0.0167	0.1777	9.6927
10.9702	0.0323	0.1651	9.7028
10.9802	0.0197	0.1825	9.6855
10.9902	0.0185	0.1675	9.6903
11.0002	0.0114	0.1609	9.6843
11.0102	-0.0006	0.1651	9.6532
11.0202	0.0167	0.1819	9.7088
11.0302	0.0108	0.1848	9.7082
11.0402	-0.0036	0.1753	9.6616
11.0502	0.0084	0.1669	9.6670
11.0602	0.0353	0.1657	9.6610
11.0702	0.0341	0.1681	9.6927
11.0802	-0.0024	0.1735	9.6622
11.0902	-0.0018	0.1771	9.6975
11.1002	-0.1280	0.1448	9.7304
11.1102	0.0227	0.1585	9.6652
11.1202	0.0167	0.1687	9.7232
11.1302	0.0407	0.1561	9.7226
11.1402	0.0173	0.1633	9.6813
11.1502	0.0508	0.1675	9.6741
11.1602	0.0173	0.1681	9.7064
11.1702	0.0012	0.1657	9.7082
11.1802	0.0275	0.1819	9.7005
11.1902	0.0132	0.1735	9.6975
11.2002	0.0185	0.1639	9.7040
11.2102	0.0299	0.1645	9.6831
11.2202	0.0102	0.1777	9.6346
11.2302	0.0191	0.1908	9.7028
11.2402	0.0108	0.1639	9.6801
11.2502	0.0389	0.1561	9.7076
11.2602	0.0090	0.1454	9.7393
11.2702	0.0120	0.1639	9.7011
11.2802	0.0347	0.1771	9.6843
11.2902	0.0173	0.1519	9.6795
11.3002	0.0365	0.1693	9.6915
11.3102	0.0461	0.1872	9.6843
11.3202	0.0257	0.1621	9.6801
11.3302	0.0066	0.1639	9.7100
11.3402	0.0239	0.1717	9.7058
11.3502	0.0024	0.1735	9.6951
11.3602	0.0395	0.1723	9.6598
11.3702	0.0221	0.3051	9.6616
11.3802	0.0096	0.1705	9.6945
11.3902	0.0233	0.1711	9.6825
11.4002	-0.0072	0.1819	9.6580
11.4102	0.0371	0.1615	9.6693
11.4202	0.0251	0.1681	9.6957
11.4302	0.0299	0.1573	9.6999
11.4402	0.0138	0.1777	9.7567
11.4502	0.0185	0.1507	9.6652
11.4602	0.0293	0.1585	9.7022
11.4702	0.0502	0.1789	9.6747
11.4802	0.0120	0.1549	9.6424
11.4902	-0.0138	0.1615	9.6711
11.5002	0.0191	0.1603	9.6963
11.5102	0.0203	0.1789	9.7028
11.5202	0.0263	0.1711	9.6807
11.5302	0.0257	0.1669	9.7040
11.5402	0.0209	0.1819	9.6807
11.5502	0.0173	0.1621	9.6891
11.5602	0.0317	0.1741	9.6921
11.5702	-0.0024	0.1519	9.7094
11.5802	0.0227	0.1651	9.6783
11.5902	0.0138	0.1860	9.6957
11.6002	0.0215	0.1627	9.7208
11.6102	0.0341	0.1364	9.7148
11.6202	0.0179	0.1723	9.7088
11.6302	0.0377	0.1573	9.7058
11.6402	0.0167	0.1669	9.6951
11.6502	-0.0084	0.1771	9.6975
11.6602	0.0191	0.1615	9.6795
11.6702	0.0162	0.1537	9.7106
11.6802	0.0323	0.1693	9.7112
11.6902	0.0269	0.1627	9.7190
11.7002	0.0167	0.1669	9.6598
11.7102	0.0167	0.1621	9.6484
11.7202	0.0251	0.1944	9.6562
11.7302	0.0114	0.1675	9.6963
11.7402	0.0042	0.1687	9.6747
11.7502	0.0245	0.1705	9.7160
11.7602	0.0221	0.1573	9.7094
11.7702	0.0227	0.1448	9.6933
11.7802	0.0514	0.1418	9.6687
11.7902	0.0114	0.1765	9.6969
11.8002	-0.1496	0.1525	9.7250
11.8102	0.0066	0.1753	9.6789
11.8202	0.0120	0.1687	9.6843
11.8302	0.0138	0.1747	9.7214
11.8402	0.0108	0.1430	9.6939
11.8502	0.0449	0.1627	9.7040
11.8602	0.0299	0.1669	9.6897
11.8702	0.0078	0.1448	9.6921
11.8802	0.0185	0.1777	9.7304
11.8902	0.0257	0.1597	9.7136
11.9002	0.0030	0.1878	9.6664
11.9102	0.0048	0.1591	9.7130
11.9202	0.0245	0.1872	9.6993
11.9302	0.0287	0.1711	9.6951
11.9402	0.0544	0.1424	9.7202
11.9502	0.0048	0.1729	9.6825
11.9602	0.0245	0.1771	9.6610
11.9702	-0.0120	0.1651	9.7094
11.9802	-0.1340	0.1633	9.6903
11.9902	0.0377	0.1872	9.7070
12.0002	0.0245	0.1573	9.6676
12.0102	0.0156	0.1777	9.6382
12.0202	0.0251	0.1759	9.6981
12.0302	0.0191	0.1717	9.6897
12.0402	0.0102	0.1657	9.6981
12.0502	0.0353	0.1675	9.7411
12.0602	0.0006	0.1854	9.6897
12.0702	-0.1519	0.1513	9.7298
12.0802	0.0323	0.1561	9.6861
12.0902	0.0257	0.3045	9.6747
12.1002	0.0353	0.1442	9.7046
12.1102	0.0215	0.1819	9.6843
12.1202	0.0012	0.1801	9.6777
12.1302	0.0323	0.1681	9.6885
12.1402	0.0072	0.1813	9.7011
12.1502	0.0263	0.1836	9.6867
12.1602	0.0263	0.1687	9.6927
12.1702	0.0132	0.1687	9.7011
12.1802	0.0251	0.1687	9.7124
12.1902	0.0263	0.1675	9.6867
12.2002	0.0138	0.1813	9.7154
12.2102	0.0293	0.1585	9.7142
12.2202	0.0042	0.1795	9.6957
12.2302	0.0191	0.1705	9.7298
12.2402	0.0078	0.1687	9.6717
12.2502	0.0269	0.1687	9.6885
12.2602	0.0179	0.1639	9.6717
12.2702	0.0120	0.1645	9.6765
12.2802	0.0156	0.1777	9.6885
12.2902	0.0162	0.1902	9.7005
12.3002	0.0251	0.1669	9.6801
12.3102	0.0263	0.1645	9.6927
12.3202	0.0251	0.1777	9.7256
12.3302	0.0108	0.1585	9.6807
12.3402	0.0048	0.1507	9.6957
12.3502	0.0012	0.1436	9.6945
12.3602	0.0329	0.1705	9.7232
12.3702	0.0305	0.1442	9.7202
12.3802	-0.0078	0.1771	9.7076
12.3902	0.0269	0.1801	9.7549
12.4002	0.0209	0.1561	9.6664
12.4102	0.0108	0.1705	9.6837
12.4202	0.0144	0.1627	9.7028
12.4302	0.0317	0.1633	9.6520
12.4402	0.0048	0.1645	9.6634
12.4502	0.0090	0.1597	9.6921
12.4602	0.0173	0.1370	9.6849
12.4702	0.0132	0.1807	9.7040
12.4802	0.0341	0.1741	9.6735
12.4902	0.0072	0.1639	9.6819
12.5002	0.0215	0.1585	9.6873
12.5102	0.0120	0.1603	9.6891
12.5202	0.0269	0.1681	9.6891
12.5302	0.0203	0.1693	9.7136
12.5402	0.0329	0.1561	9.7130
12.5502	0.0467	0.1741	9.7208
12.5602	0.0263	0.1597	9.7016
12.5702	0.0162	0.1645	9.6819
12.5802	0.0317	0.1537	9.6664
12.5902	0.0191	0.1567	9.6879
12.6002	0.0138	0.1657	9.6975
12.6102	0.0144	0.1825	9.6981
12.6202	0.0120	0.1807	9.6939
12.6302	0.0108	0.1759	9.6933
12.6402	0.0227	0.1825	9.6939
12.6502	0.0215	0.1573	9.6885
12.6602	0.0245	0.1370	9.6604
12.6702	0.0221	0.1645	9.6981
12.6802	0.0036	0.1777	9.7363
12.6902	0.0245	0.1729	9.6963
12.7002	0.0072	0.3015	9.6891
12.7102	0.0437	0.1705	9.7310
12.7202	0.0048	0.1418	9.6783
12.7302	0.0299	0.1789	9.6981
12.7402	0.0173	0.1597	9.6999
12.7502	0.0437	0.1490	9.6753
12.7602	0.0269	0.1914	9.6723
12.7702	-0.1370	0.1561	9.6771
12.7802	-0.0030	0.1573	9.7040
12.7902	0.0090	0.1699	9.7196
12.8002	0.0036	0.1591	9.6670
12.8102	0.0162	0.1669	9.6909
12.8202	0.0562	0.1681	9.6843
12.8302	0.0239	0.1747	9.6855
12.8402	0.0036	0.1651	9.6628
12.8502	0.0126	0.1699	9.6813
12.8602	0.0108	0.1681	9.7112
12.8702	0.0281	0.1944	9.7184
12.8802	0.0156	0.1687	9.6903
12.8902	0.0209	0.1705	9.6903
12.9002	0.0138	0.1663	9.6999
12.9102	0.0072	0.1747	9.6951
12.9202	0.0144	0.1759	9.6873
12.9302	0.0072	0.1663	9.7082
12.9402	0.0167	0.1729	9.6915
12.9502	0.0156	0.1705	9.6993
12.9602	0.0132	0.1513	9.6735
12.9702	0.0197	0.1639	9.6640
12.9802	0.0257	0.1537	9.6939
12.9902	0.0269	0.1430	9.7292
13.0002	0.0203	0.1699	9.7369
13.0102	0.0060	0.1603	9.6945
13.0202	0.0185	0.1747	9.7094
13.0302	0.0066	0.1830	9.7124
13.0402	0.0215	0.1848	9.6789
13.0502	0.0156	0.1765	9.6999
13.0602	0.0132	0.1663	9.6933
13.0702	0.0287	0.1657	9.6538
13.0802	0.0550	0.1705	9.6873
13.0902	0.0167	0.1801	9.7722
13.1002	0.0335	0.1525	9.6981
13.1102	0.0150	0.1854	9.6568
13.1202	0.0138	0.1531	9.7070
13.1302	0.0138	0.1573	9.6693
13.1402	0.0335	0.1711	9.7232
13.1502	-0.0018	0.1813	9.7429
13.1602	0.0287	0.1597	9.7022
13.1702	0.0150	0.1830	9.6831
13.1802	0.0006	0.1663	9.6909
13.1902	0.0138	0.1681	9.6969
13.2002	0.0407	0.1759	9.6717
13.2102	0.0365	0.1777	9.6616
13.2202	0.0197	0.1603	9.7148
13.2302	0.0239	0.1771	9.6987
13.2402	0.0167	0.1747	9.7310
13.2502	0.0036	0.1669	9.7190
13.2602	0.0407	0.1567	9.6909
13.2702	0.0604	0.1675	9.7519
13.2802	0.0078	0.1579	9.7028
13.2902	0.0096	0.1723	9.6729
13.3002	0.0042	0.1657	9.6861
13.3102	0.0299	0.1705	9.6568
13.3202	-0.0024	0.1681	9.7088
13.3302	0.0371	0.1723	9.7334
13.3402	0.0652	0.1675	9.7256
13.3502	0.0455	0.1454	9.7016
13.3602	0.0239	0.1621	9.6801
13.3702	0.0221	0.1801	9.6622
13.3802	0.0197	0.1585	9.6759
13.3902	0.0018	0.1753	9.7100
13.4002	0.0156	0.1597	9.6795
13.4102	0.0419	0.1651	9.7160
13.4202	0.0251	0.1711	9.6634
13.4302	0.0173	0.1836	9.6873
13.4402	0.0197	0.1663	9.7064
13.4502	0.0341	0.1460	9.6753
13.4602	0.0299	0.1735	9.6741
13.4702	0.0311	0.1723	9.7100
13.4802	0.0114	0.1777	9.6891
13.4902	0.0108	0.1687	9.6981
13.5002	0.0209	0.1543	9.6987
13.5102	0.0120	0.1561	9.6598
13.5202	0.0514	0.1490	9.6975
13.5302	0.0233	0.1723	9.6987
13.5402	0.0000	0.1699	9.6867
13.5502	0.0156	0.1789	9.7064
13.5602	0.0162	0.1705	9.6735
13.5702	0.0317	0.1848	9.6969
13.5802	0.0257	0.1765	9.7112
13.5902	-0.0012	0.1717	9.6921
13.6002	0.0066	0.1884	9.7274
13.6102	0.0431	0.1783	9.6903
13.6202	0.0227	0.1507	9.6825
13.6302	0.0299	0.1747	9.7094
13.6402	0.0191	0.1663	9.7118
13.6502	0.0162	0.1597	9.6436
13.6602	0.0425	0.1783	9.7142
13.6702	0.0341	0.1944	9.6711
13.6802	0.0120	0.1663	9.7005
13.6902	0.0060	0.1723	9.6993
13.7002	-0.0066	0.1717	9.6891
13.7102	0.0126	0.1819	9.6873
13.7202	0.0132	0.1555	9.6921
13.7302	0.0287	0.1657	9.6885
13.7402	0.0162	0.1765	9.7268
13.7502	0.0197	0.1639	9.6921
13.7602	0.0227	0.1609	9.6795
13.7702	0.0329	0.1370	9.7052
13.7802	0.0395	0.1657	9.6640
13.7902	0.0209	0.1717	9.7537
13.8002	0.0000	0.1591	9.6849
13.8102	0.0508	0.1926	9.6795
13.8202	0.0371	0.1819	9.7172
13.8302	0.0209	0.1825	9.6628
13.8402	0.0144	0.1854	9.6825
13.8502	0.0287	0.1669	9.6807
13.8602	0.0185	0.1699	9.7363
13.8702	0.0479	0.1561	9.6939
13.8802	0.0251	0.1597	9.7298
13.8902	0.0215	0.1711	9.6849
13.9002	0.0269	0.1573	9.7226
13.9102	0.0341	0.1633	9.6717
13.9202	0.0257	0.1400	9.7148
13.9302	0.0012	0.1669	9.6681
13.9402	0.0096	0.1777	9.6628
13.9502	0.0084	0.1878	9.7262
13.9602	0.0156	0.1609	9.6819
13.9702	0.0479	0.1699	9.7513
13.9802	0.0191	0.1645	9.6975
13.9902	0.0293	0.1783	9.6801
14.0002	0.0066	0.1531	9.6759
14.0102	0.0162	0.1687	9.6951
14.0202	0.0132	0.1513	9.7076
14.0302	0.0281	0.1723	9.6646
14.0402	0.0269	0.1717	9.7040
14.0502	0.0042	0.1729	9.6945
14.0602	0.0060	0.1747	9.6687
14.0702	0.0156	0.1735	9.6795
14.0802	0.0239	0.1848	9.6801
14.0902	-0.0018	0.1597	9.6999
14.1002	0.0012	0.1639	9.7178
14.1102	0.0054	0.1555	9.7310
14.1202	0.0126	0.1747	9.7082
14.1302	0.0514	0.1872	9.7124
14.1402	0.0323	0.1657	9.6975
14.1502	0.0150	0.1717	9.6460
14.1602	0.0347	0.1741	9.6885
14.1702	0.0203	0.1621	9.7034
14.1802	0.0054	0.1825	9.7005
14.1902	0.0215	0.1543	9.6777
14.2002	0.0281	0.1657	9.6975
14.2102	0.0162	0.1723	9.7250
14.2202	0.0227	0.1669	9.6987
14.2302	0.0138	0.1801	9.6819
14.2402	0.0269	0.1597	9.6765
14.2502	0.0150	0.1525	9.7040
14.2602	0.0191	0.1460	9.7082
14.2702	0.0311	0.1735	9.7106
14.2802	0.0000	0.1765	9.6921
14.2902	0.0712	0.1753	9.7196
14.3002	0.0096	0.1723	9.6610
14.3102	0.0191	0.1597	9.6891
14.3202	0.0185	0.1741	9.6897
14.3302	-0.0036	0.1789	9.6454
14.3402	0.0233	0.1627	9.7058
14.3502	0.0120	0.1705	9.7005
14.3602	-0.0012	0.1705	9.7160
14.3702	0.0263	0.1448	9.7357
14.3802	0.0407	0.1795	9.6891
14.3902	0.0173	0.1657	9.6981
14.4002	0.0078	0.1490	9.6945
14.4102	0.0162	0.1741	9.6915
14.4202	0.0185	0.1513	9.6711
14.4302	0.0102	0.1484	9.6622
14.4402	0.0257	0.1783	9.7070
14.4502	0.0239	0.1597	9.6987
14.4602	0.0305	0.1872	9.6903
14.4702	0.0120	0.1484	9.7238
14.4802	0.0221	0.1807	9.6610
14.4902	-0.0024	0.1627	9.6616
14.5002	0.0126	0.1651	9.7094
14.5102	-0.0006	0.1735	9.6819
14.5202	0.0263	0.1597	9.7052
14.5302	0.0221	0.1765	9.6855
14.5402	0.0305	0.1783	9.6879
14.5502	0.0209	0.1836	9.6897
14.5602	0.0221	0.1519	9.6957
14.5702	0.0245	0.1717	9.6855
14.5802	0.0096	0.1735	9.6765
14.5902	0.0162	0.1627	9.7022
14.6002	-0.0024	0.1854	9.7046
14.6102	0.0251	0.1729	9.7028
14.6202	0.0329	0.1669	9.6783
14.6302	0.0371	0.1741	9.7130
14.6402	0.0251	0.1765	9.7130
14.6502	0.0018	0.1591	9.6723
14.6602	0.0305	0.0251	9.7112
14.6702	-0.0030	0.1651	9.7028
14.6802	0.0227	0.1585	9.6885
14.6902	0.0281	0.1555	9.6765
14.7002	0.0048	0.1920	9.6981
14.7102	0.0329	0.1603	9.7016
14.7202	0.0078	0.1711	9.6915
14.7302	0.0102	0.1555	9.6628
14.7402	0.0185	0.1472	9.7298
14.7502	0.0245	0.1466	9.7070
14.7602	-0.0030	0.1639	9.6681
14.7702	0.0317	0.1669	9.6705
14.7802	0.0233	0.1609	9.6873
14.7902	0.0090	0.1549	9.6843
14.8002	0.0245	0.1729	9.6526
14.8102	0.0185	0.1675	9.6867
14.8202	0.0209	0.1561	9.6981
14.8302	0.0000	0.1543	9.6873
14.8402	0.0084	0.1358	9.6861
14.8502	0.0144	0.1902	9.6813
14.8602	0.0221	0.1765	9.6837
14.8702	0.0114	0.1783	9.7016
14.8802	0.0203	0.1681	9.6849
14.8902	0.0090	0.1627	9.7046
14.9002	0.0179	0.1723	9.6915
14.9102	0.0233	0.1627	9.6819
14.9202	0.0132	0.1705	9.7034
14.9302	-0.0024	0.1543	9.6951
14.9402	0.0197	0.1627	9.6861
14.9502	0.0520	0.1567	9.6604
14.9602	0.0150	0.1663	9.6933
14.9702	0.0179	0.1358	9.7262
14.9802	0.0018	0.1543	9.7238
14.9902	0.0347	0.1657	9.6855
15.0002	0.0156	0.1591	9.6705
15.0102	0.0281	0.1735	9.7064
15.0202	0.0078	0.1519	9.6999
15.0302	0.0239	0.1687	9.6837
15.0402	0.0293	0.1627	9.7022
15.0502	-0.0084	0.1795	9.7028
15.0602	0.0215	0.1819	9.7005
15.0702	0.0144	0.1902	9.7058
15.0802	0.0341	0.1872	9.6801
15.0902	0.0185	0.1651	9.6801
15.1002	0.0018	0.1795	9.6867
15.1103	0.0323	0.1687	9.6616
15.1203	0.0197	0.1717	9.6628
15.1303	0.0227	0.1705	9.6957
15.1403	0.0425	0.1567	9.6933
15.1503	0.0138	0.1693	9.7148
15.1603	0.0072	0.1681	9.7351
15.1703	0.0197	0.1585	9.6987
15.1803	0.0281	0.1789	9.6885
15.1903	0.0317	0.1693	9.7076
15.2003	0.0293	0.1902	9.7005
15.2103	-0.0060	0.1813	9.6430
15.2203	0.0275	0.1627	9.6945
15.2303	-0.0102	0.1627	9.6867
15.2403	0.0299	0.1866	9.7172
15.2503	0.0096	0.1645	9.6963
15.2603	0.0191	0.1699	9.6711
15.2703	0.0203	0.1639	9.6885
15.2803	-0.0144	0.1603	9.6699
15.2903	0.0329	0.1466	9.7220
15.3003	0.0090	0.1705	9.7028
15.3103	0.0227	0.1651	9.6957
15.3203	0.0084	0.1711	9.6981
15.3303	0.0347	0.1765	9.6885
15.3403	0.0138	0.1825	9.6915
15.3503	0.0251	0.1549	9.6951
15.3603	0.0167	0.1759	9.6676
15.3703	0.0138	0.1478	9.6927
15.3803	0.0203	0.1549	9.6909
15.3903	-0.0215	0.1872	9.6873
15.4003	0.0269	0.1621	9.6843
15.4103	0.0335	0.1747	9.6807
15.4203	0.0407	0.1585	9.6963
15.4303	0.0269	0.1370	9.7076
15.4403	0.0042	0.1621	9.6825
15.4503	0.0167	0.1801	9.6963
15.4603	0.0263	0.1591	9.7483
15.4703	0.0018	0.1537	9.6957
15.4803	0.0353	0.1651	9.6963
15.4903	0.0502	0.1543	9.6879
15.5003	0.0221	0.1836	9.6514
15.5103	0.0060	0.1896	9.7118
15.5203	0.0173	0.1639	9.7202
15.5303	0.0317	0.1914	9.7232
15.5403	0.0072	0.1789	9.7040
15.5503	0.0341	0.1747	9.6993
15.5603	0.0263	0.1759	9.6687
15.5703	0.0144	0.1789	9.6586
15.5803	0.0096	0.1830	9.6604
15.5903	0.0012	0.1842	9.7100
15.6003	0.0263	0.1400	9.6717
15.6103	0.0281	0.1621	9.6849
15.6203	0.0269	0.1908	9.7489
15.6303	0.0425	0.1771	9.7052
15.6403	0.0473	0.1639	9.6771
15.6503	0.0084	0.1705	9.6921
15.6603	0.0227	0.1609	9.6909
15.6703	0.0138	0.1585	9.6987
15.6803	0.0209	0.1633	9.7280
15.6903	0.0024	0.1478	9.7052
15.7003	0.0269	0.1825	9.6933
15.7103	0.0078	0.1783	9.7286
15.7203	0.0132	0.1819	9.6801
15.7303	0.0209	0.1597	9.6508
15.7403	0.0090	0.1693	9.6945
15.7503	0.0371	0.1657	9.7028
15.7603	0.0209	0.1472	9.6957
15.7703	0.0173	0.1783	9.6795
15.7803	0.0066	0.1603	9.6981
15.7903	0.0185	0.0269	9.7160
15.8003	0.0598	0.1549	9.7166
15.8103	0.0173	0.1543	9.6903
15.8203	0.0156	0.1531	9.6544
15.8303	0.0305	0.1585	9.7124
15.8403	-0.0275	0.1699	9.6550
15.8503	0.0197	0.1591	9.7016
15.8603	0.0132	0.1603	9.7220
15.8703	0.0096	0.1663	9.6861
15.8803	0.0054	0.1705	9.7256
15.8903	0.0066	0.1789	9.6747
15.9003	0.0251	0.1836	9.6861
15.9103	0.0275	0.1657	9.7094
15.9203	0.0245	0.1777	9.6975
15.9303	0.0251	0.1507	9.7005
15.9403	0.0162	0.1603	9.7130
15.9503	0.0066	0.1561	9.7082
15.9603	0.0144	0.1759	9.6550
15.9703	0.0251	0.1783	9.6173
15.9803	0.0449	0.1549	9.6927
15.9903	0.0114	0.1639	9.7118
16.0003	0.0173	0.1603	9.7058
16.0103	0.0251	0.1783	9.7052
16.0203	-0.0024	0.1627	9.7262
16.0303	0.0233	0.1657	9.7016
16.0403	0.0239	0.1657	9.6676
16.0503	0.0347	0.1765	9.7005
16.0603	0.0299	0.0018	9.7184
16.0703	-0.0048	0.1645	9.6789
16.0803	0.0227	0.1621	9.7106
16.0903	0.0197	0.1555	9.7208
16.1003	0.0072	0.1585	9.7094
16.1103	0.0479	0.1597	9.7328
16.1203	0.0257	0.1501	9.6951
16.1303	0.0311	0.1789	9.7034
16.1403	0.0263	0.1567	9.7220
16.1503	0.0275	0.1651	9.6562
16.1603	-0.0030	0.1603	9.6837
16.1703	0.0209	0.1603	9.6957
16.1803	-0.0257	0.1872	9.6987
16.1903	0.0090	0.1693	9.6921
16.2003	0.0263	0.1567	9.7268
16.2103	0.0275	0.1992	9.6472
16.2203	0.0293	0.1490	9.6819
16.2303	0.0287	0.1663	9.6927
16.2403	0.0036	0.0150	9.7154
16.2503	0.0084	0.1807	9.6897
16.2603	0.0048	0.1717	9.7106
16.2703	0.0144	0.1723	9.7064
16.2803	0.0245	0.1633	9.7118
16.2903	0.0395	0.1753	9.6933
16.3003	0.0090	0.1675	9.7005
16.3103	0.0299	0.1741	9.6526
16.3203	0.0042	0.1537	9.6951
16.3303	0.0257	0.1819	9.6945
16.3403	0.0048	0.1759	9.6963
16.3503	0.0138	0.1615	9.6825
16.3603	0.0263	0.1669	9.6783
16.3703	0.0197	0.1836	9.6903
16.3803	0.0012	0.1765	9.6676
16.3903	0.0209	0.1687	9.7005
16.4003	0.0036	0.1609	9.6699
16.4103	0.0245	0.1657	9.6999
16.4203	0.0257	0.1645	9.6897
16.4303	0.0185	0.1669	9.7172
16.4403	0.0335	0.1699	9.6987
16.4503	0.0215	0.1657	9.6161
16.4603	0.0251	0.1412	9.7142
16.4703	-0.1448	0.1609	9.7130
16.4803	0.0179	0.1645	9.7112
16.4903	0.0323	0.1478	9.7202
16.5003	0.0251	0.1753	9.7016
16.5103	0.0126	0.1854	9.7208
16.5203	0.0173	0.1968	9.6813
16.5303	0.0024	0.1723	9.6807
16.5403	0.0179	0.1651	9.6759
16.5503	0.0323	0.1783	9.7016
16.5603	0.0144	0.1711	9.6867
16.5703	0.0263	0.1645	9.7112
16.5803	0.0401	0.1795	9.6927
16.5903	0.0245	0.1657	9.6699
16.6003	0.0305	0.1825	9.6987
16.6103	0.0311	0.1735	9.6699
16.6203	0.0263	0.1825	9.6837
16.6303	0.0120	0.1723	9.7094
16.6403	0.0491	0.1549	9.6807
16.6503	-0.1412	0.1789	9.7088
16.6603	0.0120	0.1531	9.7016
16.6703	0.0156	0.1585	9.6933
16.6803	0.0066	0.1669	9.6514
16.6903	0.0162	0.1334	9.6945
16.7003	0.0197	0.1597	9.6903
16.7103	0.0203	0.1753	9.6981
16.7203	0.0281	0.1555	9.7340
16.7303	0.0233	0.1621	9.7160
16.7403	0.0042	0.1669	9.7064
16.7503	0.0221	0.1328	9.7005
16.7603	-0.0060	0.1819	9.6532
16.7703	0.0329	0.1795	9.6759
16.7803	0.0269	0.1663	9.6562
16.7903	0.0090	0.1693	9.6873
16.8003	0.0132	0.1561	9.6759
16.8103	0.0185	0.1621	9.6927
16.8203	0.0305	0.1687	9.6921
16.8303	0.0311	0.1591	9.6837
16.8403	0.0024	0.1830	9.6957
16.8503	0.0167	0.1807	9.7052
16.8603	0.0078	0.1663	9.6729
16.8703	0.0377	0.1603	9.7022
16.8803	0.0365	0.1621	9.6867
16.8903	0.0078	0.1753	9.7052
16.9003	0.0257	0.1896	9.7441
16.9103	0.0030	0.1507	9.6813
16.9203	0.0209	0.1615	9.6526
16.9303	0.0365	0.1525	9.7022
16.9403	0.0030	0.1573	9.6358
16.9503	0.0024	0.1585	9.6777
16.9603	0.0203	0.1795	9.7274
16.9703	-0.0215	0.1747	9.6873
16.9803	0.0156	0.1813	9.6819
16.9903	0.0072	0.1735	9.6676
17.0003	0.0144	0.1902	9.6568
17.0103	0.0030	0.1567	9.6957
17.0203	0.0078	0.1496	9.6891
17.0303	0.0156	0.1699	9.7160
17.0403	0.0144	0.1699	9.7022
17.0503	0.0090	0.1591	9.7190
17.0603	0.0347	0.1866	9.7052
17.0703	0.0191	0.1842	9.6987
17.0803	0.0514	0.1789	9.6807
17.0903	0.0126	0.1585	9.6789
17.1003	0.0203	0.1717	9.6837
17.1103	0.0179	0.1723	9.6957
17.1203	0.0126	0.1579	9.7178
17.1303	0.0078	0.1866	9.6837
17.1403	0.0173	0.1693	9.7064
17.1503	0.0437	0.1639	9.6975
17.1603	0.0167	0.1705	9.6801
17.1703	0.0634	0.1430	9.6717
17.1803	0.0054	0.1753	9.7034
17.1903	0.0311	0.1854	9.7076
17.2003	0.0066	0.1531	9.7016
17.2103	0.0209	0.1819	9.7005
17.2203	0.0173	0.1842	9.7184
17.2303	0.0114	0.1735	9.6909
17.2403	0.0461	0.1765	9.6705
17.2503	0.0449	0.1783	9.6897
17.2603	0.0293	0.1537	9.6987
17.2703	0.0317	0.1842	9.6807
17.2803	-0.1322	0.1735	9.6604
17.2903	0.0120	0.1765	9.6478
17.3003	0.0311	0.1633	9.7046
17.3103	0.0054	0.1747	9.6765
17.3203	0.0323	0.1723	9.6909
17.3303	0.0311	0.1567	9.6867
17.3403	0.0096	0.1448	9.6915
17.3503	0.0054	0.1573	9.7178
17.3603	0.0060	0.1657	9.6646
17.3703	0.0179	0.2004	9.6885
17.3803	0.0156	0.1627	9.6957
17.3903	0.0084	0.1717	9.6699
17.4003	0.0371	0.1968	9.6664
17.4103	0.0245	0.1525	9.6975
17.4203	0.0072	0.1789	9.7369
17.4303	0.0144	0.1675	9.6837
17.4403	0.0215	0.1633	9.7202
17.4503	0.0275	0.1807	9.7040
17.4603	0.0006	0.1789	9.6909
17.4703	0.0167	0.1436	9.6903
17.4803	0.0018	0.1747	9.7011
17.4903	0.0383	0.1657	9.7100
17.5003	0.0197	0.1723	9.6903
17.5103	0.0030	0.1573	9.7268
17.5203	0.0311	0.1819	9.7148
17.5303	0.0108	0.1525	9.7298
17.5403	0.0407	0.1842	9.6837
17.5503	0.0293	0.1681	9.6664
17.5603	0.0371	0.1693	9.6598
17.5703	0.0138	0.1717	9.6520
17.5803	-0.0102	0.1621	9.6735
17.5903	0.0520	0.1854	9.6723
17.6003	0.0233	0.1693	9.6939
17.6103	0.0173	0.1699	9.6789
17.6203	0.1519	0.1789	9.6777
17.6303	0.0048	0.1699	9.6789
17.6403	0.0162	0.1507	9.7166
17.6503	0.0012	0.1609	9.7058
17.6603	0.0084	0.1717	9.7142
17.6703	0.0479	0.1687	9.6843
17.6803	0.0191	0.1669	9.6897
17.6903	0.0353	0.1645	9.7160
17.7003	0.0281	0.1747	9.6909
17.7103	0.0239	0.1633	9.6717
17.7203	0.0102	0.1639	9.6921
17.7303	0.0120	0.1681	9.6460
17.7403	-0.0197	0.1537	9.6783
17.7503	0.0120	0.1890	9.7543
17.7603	0.0162	0.1585	9.7088
17.7703	0.0173	0.1801	9.6897
17.7803	0.0485	0.1842	9.7513
17.7903	-0.0006	0.1609	9.6849
17.8003	0.0108	0.1735	9.6759
17.8103	0.0078	0.1651	9.6885
17.8203	0.0162	0.1651	9.6687
17.8303	0.0090	0.1615	9.7076
17.8403	0.0275	0.1705	9.6801
17.8503	0.0437	0.1813	9.7465
17.8603	0.0335	0.1657	9.6705
17.8703	0.0227	0.1741	9.6670
17.8803	0.0227	0.1741	9.6945
17.8903	0.0359	0.1693	9.6897
17.9003	-0.0006	0.1747	9.6993
17.9103	0.0132	0.1801	9.6723
17.9203	0.0245	0.1663	9.6729
17.9303	0.0126	0.1842	9.7172
17.9403	0.0138	0.1842	9.6759
17.9503	0.0365	0.1585	9.6765
17.9603	0.0257	0.1645	9.6777
17.9703	0.0132	0.1687	9.6819
17.9803	0.0036	0.1436	9.6681
17.9903	0.0132	0.1986	9.6753
18.0003	0.0239	0.1639	9.6909
18.0103	0.0359	0.1992	9.6598
18.0203	0.0120	0.1723	9.6586
18.0303	0.0377	0.1765	9.7034
18.0403	-0.0114	0.1711	9.7011
18.0503	0.0383	0.1777	9.6765
18.0603	0.0006	0.1842	9.6795
18.0703	-0.1388	0.1585	9.6676
18.0803	0.0162	0.1597	9.6933
18.0903	0.0144	0.1795	9.7058
18.1003	0.0108	0.1908	9.6891
18.1103	0.0012	0.1621	9.6933
18.1203	0.0562	0.1513	9.7052
18.1303	0.0006	0.1687	9.6819
18.1403	0.0108	0.1442	9.6891
18.1503	0.0066	0.1729	9.6705
18.1603	-0.1322	0.1777	9.6951
18.1703	0.0197	0.1705	9.7046
18.1803	0.0173	0.1807	9.6795
18.1903	0.0281	0.1460	9.6975
18.2003	0.0042	0.1842	9.6741
18.2103	0.0108	0.1657	9.6753
18.2203	0.0257	0.1591	9.6837
18.2303	0.0215	0.1507	9.7190
18.2403	0.0335	0.1878	9.6945
18.2503	0.1507	0.1693	9.7142
18.2603	0.0395	0.1699	9.6676
18.2703	0.0203	0.1549	9.6783
18.2803	0.0179	0.1496	9.7238
18.2903	0.0269	0.1842	9.6652
18.3003	0.0191	0.1687	9.7435
18.3103	0.0138	0.1830	9.7028
18.3203	-0.0042	0.1597	9.6759
18.3303	0.0245	0.1669	9.7082
18.3403	0.0126	0.1974	9.6915
18.3503	0.0120	0.1753	9.6897
18.3603	0.0215	0.1813	9.6789
18.3703	0.0251	0.1723	9.6915
18.3803	0.0173	0.1783	9.6909
18.3903	0.0179	0.1705	9.6861
18.4003	0.0179	0.1657	9.7005
18.4103	0.0126	0.1717	9.6616
18.4203	0.0269	0.1807	9.6873
18.4303	0.0042	0.1801	9.7005
18.4403	0.0419	0.1813	9.6873
18.4503	0.0138	0.1609	9.6538
18.4603	0.0018	0.1699	9.6975
18.4703	0.0150	0.1687	9.6963
18.4803	0.0209	0.1842	9.7238
18.4903	0.0191	0.1687	9.6909
18.5003	0.0269	0.1543	9.6747
18.5103	0.0299	0.1651	9.7028
18.5203	0.0227	0.1675	9.6723
18.5303	0.0233	0.1490	9.6729
18.5403	0.0012	0.1783	9.7178
18.5503	0.0191	0.1663	9.7082
18.5603	0.0018	0.1741	9.7112
18.5703	0.0389	0.1621	9.6753
18.5803	0.0413	0.1603	9.6807
18.5903	0.0138	0.1591	9.6640
18.6003	0.0084	0.1675	9.6819
18.6103	0.0162	0.1537	9.7268
18.6203	0.0269	0.1639	9.7256
18.6303	0.0251	0.1699	9.7256
18.6403	0.0646	0.1771	9.7166
18.6503	0.0449	0.1501	9.6819
18.6603	0.0520	0.1687	9.7202
18.6703	0.0203	0.1783	9.7011
18.6803	-0.1334	0.1663	9.6813
18.6903	0.0120	0.1627	9.7238
18.7003	0.0305	0.1932	9.7046
18.7103	0.0179	0.1699	9.7052
18.7203	0.0018	0.1675	9.7172
18.7303	0.0491	0.1663	9.6951
18.7403	0.0000	0.1687	9.6981
18.7503	0.0395	0.1651	9.6987
18.7603	0.0197	0.1771	9.7196
18.7703	0.0108	0.1836	9.6921
18.7803	0.0293	0.1591	9.6867
18.7903	0.0203	0.1627	9.6933
18.8003	0.0323	0.1669	9.7094
18.8103	0.0311	0.1681	9.6460
18.8203	0.0287	0.1735	9.6699
18.8303	0.0203	0.1687	9.7136
18.8403	0.0203	0.1448	9.6652
18.8503	0.0108	0.1717	9.6933
18.8603	0.0144	0.1819	9.6622
18.8703	0.0108	0.1759	9.6789
18.8803	0.0036	0.1789	9.7076
18.8903	0.0275	0.1585	9.6951
18.9003	-0.0024	0.1525	9.7082
18.9103	0.0275	0.1543	9.6849
18.9203	0.0203	0.1633	9.6945
18.9303	0.0054	0.1783	9.7268
18.9403	0.0042	0.1777	9.6957
18.9503	-0.1442	0.1759	9.6729
18.9603	0.0126	0.1753	9.6999
18.9703	0.0317	0.1621	9.6843
18.9803	0.0090	0.1651	9.6963
18.9903	0.0305	0.1872	9.6664
19.0003	0.0185	0.1669	9.6969
19.0103	0.0060	0.1615	9.6945
19.0203	0.0233	0.1675	9.7136
19.0303	0.0245	0.1813	9.6562
19.0403	0.0305	0.1627	9.6837
19.0503	0.0251	0.1310	9.6735
19.0603	0.0245	0.1807	9.6807
19.0703	0.0455	0.1585	9.6933
19.0803	0.0407	0.1645	9.6670
19.0903	0.0215	0.1693	9.7220
19.1003	0.0018	0.1723	9.6873
19.1103	0.0072	0.1860	9.7118
19.1203	0.0592	0.1537	9.6921
19.1303	0.0245	0.1687	9.6556
19.1403	0.0449	0.1591	9.6490
19.1503	-0.0018	0.1807	9.6705
19.1603	-0.0054	0.1633	9.7082
19.1703	0.0036	0.1663	9.6795
19.1803	0.0179	0.1825	9.7166
19.1903	0.0006	0.1753	9.7046
19.2003	0.0126	0.1681	9.6975
19.2103	-0.0024	0.1741	9.6819
19.2203	0.0167	0.1454	9.6843
19.2303	0.0144	0.1807	9.7028
19.2403	0.0030	0.1813	9.6765
19.2503	0.0377	0.1615	9.7268
19.2603	0.0233	0.1693	9.7100
19.2703	0.0018	0.1890	9.6879
19.2803	0.0132	0.1639	9.6849
19.2903	0.0156	0.1950	9.6346
19.3003	0.0138	0.1621	9.7226
19.3103	0.0108	0.1549	9.6963
19.3203	0.0197	0.1621	9.6670
19.3303	0.0233	0.1723	9.7166
19.3403	-0.0006	0.1860	9.6957
19.3503	0.0150	0.1848	9.6915
19.3603	0.0467	0.1705	9.7322
19.3703	0.0221	0.1825	9.7046
19.3803	0.0347	0.1513	9.6915
19.3903	0.0257	0.1687	9.7034
19.4003	0.0132	0.1591	9.7340
19.4103	0.0491	0.1759	9.6873
19.4203	0.0138	0.1723	9.6891
19.4303	0.0347	0.1836	9.6789
19.4403	0.0084	0.1609	9.7016
19.4503	0.0066	0.1717	9.6771
19.4603	0.0018	0.1747	9.6670
19.4703	-0.0072	0.1543	9.6448
19.4804	0.0203	0.1765	9.6831
19.4904	0.0209	0.1573	9.7100
19.5004	0.0520	0.1609	9.6909
19.5104	0.0257	0.1633	9.7549
19.5204	0.0281	0.1507	9.6939
19.5304	0.0191	0.1573	9.5282
19.5404	0.0748	0.1513	9.7011
19.5504	0.0215	0.1789	9.6699
19.5604	0.0347	0.1615	9.6765
19.5704	0.0042	0.1555	9.7136
19.5804	0.0173	0.1675	9.6879
19.5904	0.0251	0.1717	9.7112
19.6004	0.0281	0.1699	9.7112
19.6104	0.0287	0.1681	9.6993
19.6204	0.0060	0.1615	9.6891
19.6304	0.0150	0.1747	9.6699
19.6404	0.0191	0.1753	9.6939
19.6504	0.0156	0.1819	9.7148
19.6604	-0.0030	0.1801	9.6945
19.6704	0.0000	0.1543	9.7154
19.6804	0.0329	0.1430	9.6963
19.6904	-0.0012	0.2925	9.6855
19.7004	0.0341	0.1466	9.6963
19.7104	0.0281	0.1735	9.6837
19.7204	0.0060	0.1711	9.6514
19.7304	0.0419	0.1675	9.7280
19.7404	0.0359	0.1783	9.7178
19.7504	0.0287	0.1651	9.6819
19.7604	0.0066	0.1525	9.7190
19.7704	0.0245	0.1914	9.6681
19.7804	0.0461	0.0006	9.6897
19.7904	0.0030	0.1466	9.6939
19.8004	0.0419	0.1747	9.6981
19.8104	0.0185	0.1501	9.7011
19.8204	0.0215	0.1525	9.6987
19.8304	0.0173	0.1561	9.6909
19.8404	0.0275	0.1663	9.7274
19.8504	0.0042	0.1783	9.6628
19.8604	0.0257	0.1651	9.7118
19.8704	0.0185	0.1549	9.7088
19.8804	0.0096	0.1669	9.7310
19.8904	0.0024	0.1448	9.6939
19.9004	-0.0233	0.1609	9.7058
19.9104	0.0209	0.1765	9.6999
19.9204	0.0150	0.1753	9.6693
19.9304	0.0215	0.1848	9.6646
19.9404	0.0096	0.1693	9.7064
19.9504	0.0072	0.1693	9.6789
19.9604	0.0365	0.1591	9.6963
19.9704	0.0030	0.1729	9.6957
19.9804	0.0257	0.1621	9.6909
19.9904	-0.0132	0.1633	9.6849
20.0004	0.0257	0.1621	9.6879
20.0104	0.0167	0.1747	9.6376
20.0204	0.0227	0.1501	9.6939
20.0304	0.0138	0.0138	9.6933
20.0404	0.0144	0.1669	9.7082
20.0504	0.0233	0.1717	9.6879
20.0604	0.0167	0.1543	9.6999
20.0704	0.0203	0.1597	9.7148
20.0804	0.0371	0.1561	9.6490
20.0904	0.0120	0.1549	9.6753
20.1004	0.0185	0.1807	9.7106
20.1104	0.0024	0.1908	9.6837
20.1204	0.0281	0.1765	9.6909
20.1304	0.0120	0.1603	9.6687
20.1404	0.0096	0.1537	9.7028
20.1504	0.0239	0.1609	9.6873
20.1604	0.0215	0.1621	9.6831
20.1704	0.0269	0.1603	9.6909
20.1804	0.0018	0.1645	9.6837
20.1904	0.0114	0.1549	9.7244
20.2004	0.0042	0.1519	9.7340
20.2104	0.0443	0.1651	9.6837
20.2204	0.0425	0.1657	9.6963
20.2304	0.0197	0.1555	9.7238
20.2404	0.0179	0.1675	9.6454
20.2504	0.0263	0.1693	9.6693
20.2604	0.0066	0.1651	9.6598
20.2704	0.0102	0.1537	9.6891
20.2804	0.0215	0.1591	9.7298
20.2904	0.0317	0.1777	9.7256
20.3004	0.0323	0.1902	9.7094
20.3104	0.0132	0.1687	9.7142
20.3204	0.0323	0.1741	9.6580
20.3304	0.0377	0.1705	9.6879
20.3404	0.0138	0.1681	9.7100
20.3504	0.0114	0.1914	9.6693
20.3604	0.0227	0.1980	9.6933
20.3704	-0.0054	0.1609	9.6753
20.3804	0.0203	0.1519	9.6993
20.3904	0.0239	0.1657	9.6807
20.4004	0.0209	0.1717	9.6705
20.4104	0.0275	0.1771	9.6777
20.4204	0.0227	0.1825	9.6562
20.4304	0.0323	0.1741	9.6825
20.4404	0.0138	0.1525	9.7052
20.4504	0.0102	0.1615	9.6963
20.4604	0.0449	0.1585	9.7304
20.4704	0.0185	0.1717	9.6879
20.4804	0.0185	0.0221	9.6891
20.4904	0.0144	0.1603	9.6687
20.5004	0.0203	0.1645	9.6975
20.5104	0.0078	0.1753	9.6658
20.5204	0.0191	0.1609	9.7238
20.5304	0.0102	0.1741	9.6981
20.5404	-0.0018	0.1501	9.6951
20.5504	0.0263	0.1842	9.6819
20.5604	0.0401	0.1597	9.6723
20.5704	0.0221	0.1705	9.6873
20.5804	0.0179	0.1561	9.6951
20.5904	0.0126	0.1567	9.6987
20.6004	0.0114	0.1669	9.7160
20.6104	0.0269	0.1543	9.7076
20.6204	0.0138	0.1759	9.6969
20.6304	0.0167	0.1723	9.7256
20.6404	0.0359	0.1747	9.6676
20.6504	-0.0144	0.1585	9.6825
20.6604	0.0275	0.1687	9.6807
20.6704	0.0048	0.1609	9.6538
20.6804	0.0042	0.1669	9.6999
20.6904	0.0287	0.1633	9.6867
20.7004	0.0227	0.1693	9.6747
20.7104	0.0251	0.1567	9.7058
20.7204	0.0221	0.1561	9.7178
20.7304	0.0162	0.1878	9.6855
20.7404	0.0203	0.1579	9.7022
20.7504	0.0251	0.0090	9.6819
20.7604	0.0203	0.1585	9.6759
20.7704	0.0048	0.1693	9.6927
20.7804	0.0132	0.1705	9.7256
20.7904	0.0347	0.1639	9.7124
20.8004	0.0323	0.1651	9.7005
20.8104	0.0054	0.1711	9.6993
20.8204	-0.1286	0.1609	9.6687
20.8304	0.0269	0.1561	9.6735
20.8404	0.0179	0.1938	9.6951
20.8504	0.0138	0.1729	9.6969
20.8604	0.0443	0.1765	9.6951
20.8704	0.0162	0.1675	9.6125
20.8804	0.0227	0.1735	9.7040
20.8904	0.0227	0.1478	9.6855
20.9004	0.0341	0.1705	9.6867
20.9104	0.0042	0.1525	9.7334
20.9204	0.0102	0.1585	9.6957
20.9304	0.0221	0.1519	9.6903
20.9404	0.0323	0.1627	9.7214
20.9504	0.0000	0.1675	9.7076
20.9604	0.0167	0.1842	9.7016
20.9704	0.0353	0.1609	9.7022
20.9804	-0.1178	0.1561	9.6789
20.9904	-0.0024	0.1573	9.7154
21.0004	0.0173	0.1669	9.7094
21.0104	0.0221	0.1807	9.6693
21.0204	0.0126	0.1890	9.7070
21.0304	0.0221	0.1729	9.6490
21.0404	0.0090	0.1585	9.6879
21.0504	-0.0066	0.1753	9.6466
21.0604	0.0078	0.1825	9.7088
21.0704	0.0024	0.1717	9.7130
21.0804	-0.0090	0.1627	9.7154
21.0904	0.0209	0.3045	9.7292
21.1004	0.0467	0.1663	9.6975
21.1104	0.0293	0.1795	9.7166
21.1204	0.0227	0.1801	9.6825
21.1304	0.0305	0.1519	9.6957
21.1404	-0.0179	0.1699	9.6951
21.1504	0.0305	0.1669	9.6687
21.1604	0.0144	0.1813	9.6789
21.1704	-0.0006	0.1717	9.7005
21.1804	0.0221	0.1585	9.6843
21.1904	0.0114	0.1777	9.6777
21.2004	0.0072	0.1639	9.6987
21.2104	0.0185	0.1460	9.6687
21.2204	0.0185	0.1633	9.7124
21.2304	0.0090	0.1771	9.7100
21.2404	0.0114	0.1753	9.6927
21.2504	0.0239	0.1579	9.7417
21.2604	0.0215	0.1591	9.7136
21.2704	0.0167	0.1561	9.6586
21.2804	0.0120	0.1681	9.6819
21.2904	0.0191	0.1645	9.6765
21.3004	-0.0245	0.1615	9.6460
21.3104	0.0108	0.1609	9.6909
21.3204	0.0179	0.1687	9.7184
21.3304	0.0036	0.1807	9.6783
21.3404	0.0096	0.1771	9.7561
21.3504	0.0323	0.1699	9.6687
21.3604	0.0359	0.1657	9.6765
21.3704	0.0257	0.1657	9.6999
21.3804	0.0365	0.1753	9.6969
21.3904	0.0126	0.1699	9.7160
21.4004	0.0162	0.1555	9.7046
21.4104	0.0305	0.1669	9.6574
21.4204	0.0491	0.1484	9.6676
21.4304	0.0114	0.1627	9.6604
21.4404	0.0233	0.1591	9.7076
21.4504	0.0425	0.1645	9.6843
21.4604	0.0179	0.1627	9.6939
21.4704	0.0138	0.1711	9.6765
21.4804	0.0377	0.1687	9.7118
21.4904	0.0215	0.1813	9.6843
21.5004	0.0323	0.1705	9.7316
21.5104	0.0221	0.1759	9.6634
21.5204	0.0167	0.1490	9.7058
21.5304	0.0150	0.1537	9.7100
21.5404	0.0000	0.1597	9.6909
21.5504	-0.0036	0.1801	9.6945
21.5604	-0.0102	0.1723	9.7076
21.5704	-0.0012	0.1896	9.6927
21.5804	0.0371	0.1717	9.6843
21.5904	0.0072	0.1561	9.7399
21.6004	0.0239	0.1579	9.7094
21.6104	0.0185	0.1478	9.6945
21.6204	0.0173	0.1585	9.6747
21.6304	0.0054	0.0006	9.6921
21.6404	0.0084	0.1723	9.6957
21.6504	0.0371	0.1633	9.6897
21.6604	0.0287	0.1884	9.6251
21.6704	0.0347	0.1741	9.6873
21.6804	0.0287	0.1573	9.6873
21.6904	-0.0006	0.1585	9.6699
21.7004	0.0006	0.1340	9.7334
21.7104	0.0018	0.1663	9.7034
21.7204	0.0239	0.1669	9.6873
21.7304	-0.0006	0.1741	9.7046
21.7404	0.0096	0.1902	9.7064
21.7504	0.0215	0.1872	9.6670
21.7604	0.0114	0.1723	9.7142
21.7704	0.0066	0.1795	9.6723
21.7804	0.0233	0.1597	9.6933
21.7904	0.0191	0.1621	9.7304
21.8004	0.0132	0.1729	9.6622
21.8104	0.0150	0.1657	9.7447
21.8204	0.0072	0.1753	9.6364
21.8304	0.0425	0.1765	9.7088
21.8404	0.0556	0.1466	9.7034
21.8504	0.0000	0.1717	9.6897
21.8604	0.0144	0.1555	9.7298
21.8704	0.0233	0.1741	9.7106
21.8804	0.0197	0.1657	9.7214
21.8904	0.0221	0.1657	9.7070
21.9004	0.0395	0.1609	9.6867
21.9104	0.0167	0.1765	9.6915
21.9204	0.0173	0.1717	9.6849
21.9304	0.0323	0.1842	9.6927
21.9404	0.0287	0.1675	9.7052
21.9504	0.0197	0.1848	9.6909
21.9604	0.0054	0.1878	9.7058
21.9704	0.0185	0.1513	9.7136
21.9804	-0.0018	0.1561	9.6670
21.9904	0.0215	0.1621	9.7100
22.0004	0.0156	0.1627	9.7058
22.0104	0.0257	0.1753	9.6975
22.0204	0.0269	0.1585	9.7064
22.0304	0.0221	0.1836	9.7052
22.0404	0.0120	0.1627	9.6933
22.0504	0.0287	0.1872	9.6885
22.0604	0.0239	0.1872	9.6957
22.0704	0.0066	0.1819	9.6670
22.0804	0.0167	0.1657	9.6843
22.0904	-0.0215	0.1711	9.6610
22.1004	0.0114	0.1687	9.7232
22.1104	0.0114	0.1711	9.6873
22.1204	0.0245	0.1376	9.6604
22.1304	0.0173	0.1484	9.7351
22.1404	0.0203	0.1609	9.6879
22.1504	0.0132	0.0144	9.6717
22.1604	-0.0156	0.1699	9.6795
22.1704	0.0042	0.1801	9.5521
22.1804	0.0437	0.1675	9.7058
22.1904	0.0156	0.1711	9.7124
22.2004	0.0036	0.1478	9.6975
22.2104	0.0293	0.1496	9.7011
22.2204	0.0191	0.1627	9.6849
22.2304	0.0150	0.1507	9.6993
22.2404	0.0203	0.1705	9.6496
22.2504	0.0221	0.1543	9.6885
22.2604	0.0341	0.1603	9.7046
22.2704	-0.0012	0.1735	9.6825
22.2804	0.0185	0.1753	9.7214
22.2904	0.0185	0.1693	9.7124
22.3004	0.0233	0.1753	9.6933
22.3104	0.0126	0.1525	9.6903
22.3204	0.0156	0.1759	9.7011
22.3304	0.0305	0.0185	9.6927
22.3404	0.0036	0.1741	9.7058
22.3504	0.0251	0.1573	9.6921
22.3604	0.0048	0.1585	9.7190
22.3704	0.0102	0.1789	9.6664
22.3804	0.0173	0.1783	9.6915
22.3904	0.0221	0.1507	9.6843
22.4004	0.0156	0.1507	9.6687
22.4104	0.0150	0.1830	9.6885
22.4204	0.0203	0.1759	9.7429
22.4304	0.0138	0.1896	9.6867
22.4404	0.0179	0.1639	9.7178
22.4504	0.0311	0.1699	9.7016
22.4604	0.0479	0.1627	9.6969
22.4704	0.0114	0.1645	9.7184
22.4804	-0.0054	0.1705	9.6927
22.4904	0.0293	0.1609	9.7220
22.5004	0.0150	0.1591	9.6735
22.5104	0.0179	0.1573	9.6825
22.5204	0.0383	0.1472	9.7011
22.5304	0.0299	0.1705	9.7011
22.5404	0.0263	0.1711	9.6771
22.5504	0.0060	0.1735	9.6897
22.5604	0.0197	0.1585	9.6921
22.5704	0.0066	0.1783	9.6640
22.5804	0.0275	0.1783	9.7226
22.5904	0.0114	0.1621	9.6903
22.6004	0.0233	0.1872	9.7196
22.6104	0.0341	0.1765	9.6945
22.6204	0.0293	0.1759	9.7052
22.6304	0.0431	0.1382	9.6975
22.6404	0.0096	0.1531	9.6723
22.6504	0.0245	0.1627	9.6855
22.6604	0.0335	0.1573	9.6741
22.6704	0.0120	0.1555	9.7184
22.6804	-0.0042	0.1813	9.6969
22.6904	0.0138	0.1765	9.6855
22.7004	0.0185	0.1681	9.7011
22.7104	0.0245	0.1681	9.6801
22.7204	0.0167	0.1633	9.7190
22.7304	-0.0126	0.1490	9.6861
22.7404	0.0251	0.1472	9.7363
22.7504	0.0257	0.1687	9.7058
22.7604	0.0197	0.1657	9.6807
22.7704	0.0102	0.1681	9.6604
22.7804	0.0138	0.1543	9.6634
22.7904	0.0449	0.1597	9.7076
22.8004	0.0269	0.1633	9.6837
22.8104	0.0263	0.1639	9.7052
22.8204	0.0042	0.1723	9.6801
22.8304	0.0335	0.1866	9.6945
22.8404	0.0144	0.1657	9.7106
22.8504	0.0203	0.1651	9.6831
22.8604	0.0275	0.1669	9.6927
22.8704	0.0006	0.3027	9.6699
22.8804	0.0191	0.1663	9.6819
22.8904	0.0191	0.1478	9.6807
22.9004	0.0042	0.1705	9.7130
22.9104	0.0078	0.1747	9.6993
22.9204	0.0179	0.1633	9.6951
22.9304	0.0018	0.1591	9.7088
22.9404	0.0389	0.1675	9.6975
22.9504	0.0078	0.1615	9.6580
22.9604	0.0156	0.1699	9.7238
22.9704	0.0365	0.1519	9.6885
22.9804	-0.0030	0.1478	9.6951
22.9904	0.0706	0.1507	9.7136
23.0004	0.0323	0.1777	9.6819
23.0104	0.0341	0.1729	9.6771
23.0204	0.0329	0.1813	9.7100
23.0304	0.0197	0.1639	9.6442
23.0404	-0.0138	0.1842	9.6598
23.0504	0.0150	0.1848	9.7268
23.0604	0.0179	0.1573	9.6801
23.0704	0.0156	0.1496	9.7178
23.0804	0.0209	0.1759	9.7226
23.0904	0.0263	0.1603	9.6628
23.1004	0.0162	0.1627	9.6999
23.1104	0.0173	0.1531	9.6723
23.1204	0.0084	0.1860	9.6705
23.1304	0.0227	0.1777	9.6975
23.1404	0.0000	0.1603	9.7058
23.1504	0.0078	0.1765	9.6771
23.1604	-0.0036	0.1651	9.6658
23.1704	0.0030	0.1507	9.6634
23.1804	-0.0096	0.1657	9.6897
23.1904	0.0185	0.1609	9.6783
23.2004	0.0144	0.1573	9.6921
23.2104	0.0078	0.0203	9.7040
23.2204	0.0215	0.1902	9.6843
23.2304	0.0102	0.1783	9.7082
23.2404	0.0299	0.1543	9.6987
23.2504	0.0263	0.1765	9.6903
23.2604	0.0215	0.1609	9.6777
23.2704	0.0144	0.1400	9.7088
23.2804	0.0096	0.1765	9.6693
23.2904	0.0347	0.1639	9.7040
23.3004	0.0239	0.1627	9.7106
23.3104	0.0353	0.1561	9.7178
23.3204	0.0197	0.1813	9.7280
23.3304	0.0251	0.1424	9.6975
23.3404	0.0114	0.1651	9.6729
23.3504	0.0383	0.1513	9.7220
23.3604	0.0353	0.1621	9.6783
23.3704	-0.1304	0.1836	9.6987
23.3804	0.0060	0.1675	9.7052
23.3904	0.0191	0.1555	9.7202
23.4004	0.0401	0.1681	9.6933
23.4104	0.0156	0.1525	9.6729
23.4204	0.0467	0.1579	9.6999
23.4304	0.0173	0.1771	9.6915
23.4404	0.0000	0.1735	9.6873
23.4504	0.0233	0.1687	9.7052
23.4604	0.0144	0.1729	9.7022
23.4704	0.0419	0.1735	9.7058
23.4804	0.0108	0.0090	9.6676
23.4904	0.0263	0.1729	9.6687
23.5004	0.0257	0.1675	9.6508
23.5104	0.0078	0.1591	9.6861
23.5204	0.0102	0.1633	9.6933
23.5304	0.0239	0.1513	9.7369
23.5404	0.0323	0.1585	9.6837
23.5504	0.1525	0.1627	9.7022
23.5604	0.0120	0.1801	9.6885
23.5704	0.0227	0.1830	9.6849
23.5804	0.0048	0.1627	9.6747
23.5904	0.0275	0.1663	9.6735
23.6004	0.0329	0.1687	9.7244
23.6104	0.0281	0.1765	9.6993
23.6204	0.0150	0.1711	9.7316
23.6304	0.0096	0.1729	9.7082
23.6404	0.0144	0.1430	9.6795
23.6504	0.0173	0.1621	9.6795
23.6604	0.0000	0.1693	9.7196
23.6704	0.0257	0.1436	9.6723
23.6804	0.0006	0.1860	9.6951
23.6904	0.0263	0.1543	9.6849
23.7004	0.0066	0.1657	9.6544
23.7104	0.0209	0.1854	9.6957
23.7204	0.0078	0.1418	9.6801
23.7304	0.0024	0.1759	9.6993
23.7404	-0.0162	0.1615	9.6927
23.7504	0.0347	0.1693	9.6789
23.7604	0.0514	0.1484	9.7381
23.7704	0.0275	0.1621	9.6975
23.7804	0.0562	0.1609	9.7166
23.7904	0.0263	0.1484	9.6753
23.8004	0.0281	0.1639	9.6586
23.8104	0.0185	0.1693	9.6640
23.8204	0.0263	0.1591	9.6275
23.8304	0.0156	0.1819	9.7202
23.8404	0.0419	0.1872	9.7256
23.8505	0.0090	0.1657	9.6987
23.8605	0.0173	0.1591	9.7208
23.8705	0.0395	0.1448	9.7292
23.8805	0.0281	0.1747	9.7052
23.8905	0.0203	0.1687	9.7136
23.9005	0.0191	0.1519	9.6807
23.9105	0.0090	0.1639	9.6735
23.9205	0.0227	0.1543	9.7124
23.9305	0.0245	0.1507	9.6556
23.9405	0.0347	0.1621	9.7208
23.9505	0.0221	0.1723	9.6562
23.9605	0.0317	0.1537	9.6921
23.9705	0.0138	0.1801	9.6867
23.9805	-0.1274	0.1723	9.6939
23.9905	0.0167	0.1579	9.6813
24.0005	0.0066	0.1627	9.6933
24.0105	0.0096	0.1645	9.7070
24.0205	0.0311	0.1735	9.7088
24.0305	0.0532	0.1836	9.7046
24.0405	0.0144	0.1687	9.6927
24.0505	0.0185	0.1645	9.6999
24.0605	0.0329	0.1651	9.6711
24.0705	-0.1292	0.1807	9.6520
24.0805	-0.0138	0.1639	9.7196
24.0905	0.0179	0.1789	9.6681
24.1005	0.0012	0.1723	9.6807
24.1105	0.0197	0.1657	9.7214
24.1205	-0.0030	0.1848	9.6867
24.1305	-0.0006	0.1627	9.7034
24.1405	0.0323	0.1579	9.7160
24.1505	0.0275	0.1579	9.6723
24.1605	0.0162	0.1669	9.7064
24.1705	0.0299	0.1693	9.6562
24.1805	0.0239	0.1759	9.6801
24.1905	0.0072	0.1753	9.6981
24.2005	0.0347	0.1777	9.7088
24.2105	0.0317	0.1747	9.6843
24.2205	0.0144	0.1687	9.7022
24.2305	-0.0102	0.1657	9.6861
24.2405	-0.0054	0.1651	9.7106
24.2505	-0.1364	0.1597	9.6759
24.2605	0.0162	0.1633	9.7178
24.2705	0.0227	0.1735	9.6837
24.2805	0.0179	0.1765	9.6975
24.2905	0.0287	0.1705	9.6915
24.3005	0.0197	0.1513	9.6933
24.3105	0.0203	0.1759	9.6957
24.3205	0.0197	0.1753	9.6873
24.3305	0.0239	0.1795	9.6897
24.3405	-0.1280	0.1621	9.7286
24.3505	0.0042	0.1711	9.6903
24.3605	0.0191	0.1830	9.6807
24.3705	0.0233	0.1621	9.6705
24.3805	0.0263	0.1585	9.6873
24.3905	0.0150	0.1807	9.6891
24.4005	-0.0066	0.1813	9.6963
24.4105	0.0156	0.1663	9.6999
24.4205	0.0066	0.1412	9.6951
24.4305	0.0108	0.1902	9.6909
24.4405	0.0299	0.1478	9.6951
24.4505	0.0167	0.1765	9.6993
24.4605	0.0138	0.1878	9.6825
24.4705	0.0245	0.1711	9.6963
24.4805	-0.0030	0.1657	9.7118
24.4905	0.0120	0.1675	9.7136
24.5005	0.0156	0.1783	9.6843
24.5105	0.0132	0.1771	9.6538
24.5205	0.0132	0.1507	9.6921
24.5305	0.0084	0.1501	9.7011
24.5405	0.0251	0.1675	9.7148
24.5505	0.0401	0.1813	9.7375
24.5605	0.0203	0.1651	9.6867
24.5705	0.0233	0.1663	9.6843
24.5805	-0.0060	0.1789	9.7220
24.5905	0.0167	0.1825	9.6586
24.6005	0.0299	0.1615	9.6652
24.6105	0.0341	0.1717	9.6412
24.6205	0.0036	0.1394	9.6664
24.6305	0.0215	0.1573	9.7363
24.6405	0.0042	0.1591	9.6867
24.6505	0.0090	0.1615	9.6819
24.6605	0.0275	0.1603	9.7082
24.6705	0.0251	0.1705	9.6861
24.6805	0.0425	0.1759	9.7094
24.6905	0.0323	0.1705	9.7005
24.7005	0.0269	0.1711	9.7226
24.7105	0.0449	0.1519	9.7256
24.7205	0.0012	0.1699	9.6861
24.7305	0.0479	0.1699	9.7070
24.7405	0.0048	0.1723	9.6699
24.7505	0.0281	0.1645	9.6813
24.7605	0.0269	0.1639	9.6855
24.7705	-0.0227	0.1507	9.6813
24.7805	0.0305	0.1884	9.6933
24.7905	0.0353	0.1609	9.7298
24.8005	0.0203	0.2076	9.6819
24.8105	0.0126	0.1723	9.7028
24.8205	0.0293	0.1807	9.7555
24.8305	0.0138	0.1681	9.5533
24.8405	0.0150	0.1615	9.6867
24.8505	0.0138	0.1645	9.6741
24.8605	-0.0096	0.1729	9.6472
24.8705	0.0060	0.1537	9.7088
24.8805	-0.0114	0.1711	9.7046
24.8905	0.0179	0.1890	9.6861
24.9005	0.0215	0.1759	9.6598
24.9105	0.0191	0.1525	9.6723
24.9205	0.0191	0.1705	9.6741
24.9305	0.0239	0.1651	9.6723
24.9405	0.0036	0.1615	9.6939
24.9505	0.0359	0.1651	9.7178
24.9605	0.0197	0.1807	9.7094
24.9705	0.0150	0.1723	9.6723
24.9805	0.0245	0.1621	9.7058
24.9905	0.0377	0.1543	9.6502
25.0005	0.0335	0.1597	9.6909
25.0105	0.0239	0.1687	9.6747
25.0205	0.0024	0.1645	9.6777
25.0305	-0.0102	0.1591	9.7005
25.0405	-0.1382	0.1735	9.7106
25.0505	0.0329	0.1723	9.6933
25.0605	0.0024	0.1711	9.7118
25.0705	0.0042	0.1519	9.6915
25.0805	0.0167	0.0066	9.6915
25.0905	0.0287	0.1376	9.7160
25.1005	0.0209	0.1507	9.6741
25.1105	-0.0138	0.1585	9.6975
25.1205	0.0138	0.1759	9.6987
25.1305	0.0179	0.1627	9.6765
25.1405	0.0078	0.1735	9.6550
25.1505	0.0090	0.1633	9.7022
25.1605	0.0257	0.1388	9.6879
25.1705	0.0245	0.1490	9.6687
25.1805	0.0132	0.1795	9.6843
25.1905	0.0185	0.1830	9.6801
25.2005	0.0132	0.1579	9.7106
25.2105	0.0227	0.1980	9.6915
25.2205	0.1507	0.1633	9.7250
25.2305	0.0263	0.1669	9.6795
25.2405	0.0132	0.1854	9.6729
25.2505	0.0293	0.1490	9.6831
25.2605	0.0096	0.1561	9.7244
25.2705	0.0150	0.1621	9.7172
25.2805	0.0281	0.1741	9.6951
25.2905	0.0251	0.1765	9.7214
25.3005	0.0144	0.1633	9.6849
25.3105	0.0048	0.1496	9.6717
25.3205	0.0030	0.1585	9.6951
25.3305	0.0323	0.1657	9.6681
25.3405	0.0221	0.1603	9.7441
25.3505	0.0317	0.2022	9.7005
25.3605	0.0239	0.1669	9.6699
25.3705	0.0287	0.1621	9.6939
25.3805	0.0335	0.1741	9.6382
25.3905	0.0383	0.1848	9.7124
25.4005	0.0150	0.1771	9.6957
25.4105	0.0084	0.1669	9.6909
25.4205	0.0132	0.1669	9.7280
25.4305	0.0317	0.1729	9.7250
25.4405	0.0203	0.1705	9.6909
25.4505	0.0084	0.1890	9.6987
25.4605	0.0275	0.1705	9.6939
25.4705	0.0150	0.1753	9.7046
25.4805	0.0293	0.1496	9.6825
25.4905	0.0251	0.1531	9.6771
25.5005	0.0413	0.1531	9.7190
25.5105	0.0209	0.1675	9.6430
25.5205	-0.0036	0.1866	9.7040
25.5305	0.0144	0.1490	9.6873
25.5405	0.0209	0.1735	9.6921
25.5505	-0.0114	0.1759	9.7052
25.5605	0.0251	0.1657	9.7106
25.5705	0.0209	0.1753	9.7232
25.5805	0.0317	0.1633	9.7028
25.5905	0.0485	0.1555	9.7328
25.6005	0.0209	0.1543	9.6909
25.6105	0.0670	0.1777	9.7148
25.6205	0.0173	0.1813	9.7088
25.6305	0.0156	0.1890	9.6879
25.6405	0.0209	0.1681	9.6556
25.6505	-0.1334	0.1675	9.6520
25.6605	0.0090	0.1579	9.6927
25.6705	0.0156	0.1657	9.7094
25.6805	0.0245	0.1531	9.7112
25.6905	0.0126	0.1669	9.7130
25.7005	0.0365	0.1573	9.6921
25.7105	0.0239	0.1496	9.7028
25.7205	-0.0245	0.1663	9.6634
25.7305	0.0144	0.1729	9.7070
25.7405	0.0072	0.1741	9.7046
25.7505	0.0108	0.1603	9.7124
25.7605	0.0251	0.1645	9.7381
25.7705	0.0467	0.1669	9.7106
25.7805	0.0257	0.1693	9.6915
25.7905	0.0335	0.1789	9.7034
25.8005	0.0167	0.1603	9.7154
25.8105	0.0293	0.1926	9.7082
25.8205	0.0299	0.1549	9.7028
25.8305	0.0209	0.1675	9.6801
25.8405	0.0257	0.1478	9.6969
25.8505	0.0305	0.1836	9.6436
25.8605	0.0150	0.1466	9.7034
25.8705	0.0221	0.1657	9.6939
25.8805	0.0209	0.1813	9.6544
25.8905	0.0550	0.1609	9.7028
25.9005	0.0257	0.1747	9.7016
25.9105	0.0251	0.1496	9.6765
25.9205	0.0138	0.1609	9.7399
25.9305	0.0227	0.1789	9.6867
25.9405	0.0179	0.1621	9.6957
25.9505	0.0102	0.1501	9.6873
25.9605	0.0395	0.1884	9.6879
25.9705	-0.0006	0.1699	9.6909
25.9805	0.0335	0.1579	9.7046
25.9905	0.0191	0.1615	9.6945
26.0005	0.0353	0.1890	9.6987
26.0105	0.0191	0.1759	9.6646
26.0205	0.0275	0.1382	9.7082
26.0305	0.0179	0.1789	9.6813
26.0405	-0.0012	0.1615	9.6831
26.0505	0.0102	0.1699	9.7154
26.0605	0.0353	0.1860	9.7070
26.0705	0.0108	0.1795	9.7028
26.0805	0.0311	0.1735	9.6807
26.0905	0.0323	0.1765	9.6969
26.1005	0.0167	0.1639	9.6795
26.1105	0.0221	0.1669	9.7070
26.1205	0.0383	0.1866	9.6807
26.1305	0.0042	0.1705	9.7393
26.1405	0.0347	0.1519	9.7100
26.1505	-0.0072	0.1549	9.6819
26.1605	0.0281	0.1753	9.7196
26.1705	0.0138	0.1765	9.6592
26.1805	0.0126	0.1669	9.6849
26.1905	0.0293	0.1621	9.6891
26.2005	0.0197	0.1639	9.6855
26.2105	-0.0006	0.1783	9.6951
26.2205	0.0377	0.1669	9.7447
26.2305	0.0209	0.1717	9.6939
26.2405	0.0156	0.1561	9.7070
26.2505	0.0144	0.1765	9.7011
26.2605	0.0203	0.1669	9.6131
26.2705	0.0066	0.1555	9.6646
26.2805	0.0120	0.1860	9.6813
26.2905	0.0269	0.1448	9.7016
26.3005	0.0072	0.1621	9.7136
26.3105	0.0299	0.1962	9.6915
26.3205	0.0120	0.1591	9.7274
26.3305	0.0215	0.1657	9.6789
26.3405	0.0078	0.1615	9.6681
26.3505	0.0425	0.1699	9.6759
26.3605	0.0395	0.1406	9.6705
26.3705	0.0227	0.1549	9.7238
26.3805	0.0006	0.1741	9.7316
26.3905	0.0335	0.1687	9.7142
26.4005	0.0221	0.1711	9.6939
26.4105	0.0269	0.1854	9.7160
26.4205	0.0347	0.1651	9.6341
26.4305	0.0215	0.1765	9.6903
26.4405	0.0203	0.1633	9.7046
26.4505	0.0353	0.1645	9.7106
26.4605	0.0108	0.1741	9.6945
26.4705	0.0024	0.1777	9.7220
26.4805	0.0347	0.1711	9.6909
26.4905	0.0275	0.1783	9.7106
26.5005	0.0156	0.1543	9.6861
26.5105	0.0311	0.1783	9.6927
26.5205	0.0209	0.1801	9.6795
26.5305	-0.0102	0.1543	9.6783
26.5405	0.0078	0.1609	9.7088
26.5505	0.0239	0.1902	9.7142
26.5605	0.0467	0.1765	9.6873
26.5705	0.0018	0.1657	9.6867
26.5805	0.0269	0.1633	9.6717
26.5905	0.0156	0.1603	9.6783
26.6005	-0.0173	0.1549	9.6735
26.6105	0.0150	0.1525	9.6891
26.6205	0.0120	0.1789	9.6951
26.6305	0.0167	0.1789	9.6915
26.6405	0.0156	0.1872	9.6867
26.6505	0.0245	0.1723	9.7022
26.6605	0.0251	0.1633	9.6556
26.6705	0.0449	0.1657	9.6987
26.6805	0.0227	0.1825	9.6825
26.6905	0.0138	0.1974	9.7232
26.7005	0.0335	0.1681	9.6747
26.7105	0.0305	0.1627	9.7148
26.7205	0.0203	0.1621	9.6999
26.7305	0.0221	0.1848	9.6687
26.7405	0.0191	0.1609	9.6879
26.7505	0.0060	0.1615	9.6687
26.7605	0.0060	0.1663	9.6640
26.7705	0.0191	0.1567	9.7166
26.7805	-0.0173	0.1621	9.7112
26.7905	0.0215	0.1747	9.6861
26.8005	0.0048	0.1639	9.6867
26.8105	0.0179	0.1597	9.6514
26.8205	0.0036	0.1448	9.6849
26.8305	0.0227	0.1699	9.6915
26.8405	0.0162	0.1783	9.6897
26.8505	0.0012	0.1567	9.7082
26.8605	0.0281	0.1759	9.6945
26.8705	0.0209	0.1830	9.6825
26.8805	0.0132	0.1639	9.6903
26.8905	0.0084	0.1699	9.6628
26.9005	0.0413	0.1842	9.6873
26.9105	0.0096	0.1567	9.7106
26.9205	0.0191	0.1777	9.6364
26.9305	0.0311	0.1651	9.7280
26.9405	0.0120	0.1633	9.6885
26.9505	0.0012	0.1717	9.7040
26.9605	0.0233	0.1639	9.7310
26.9705	0.0066	0.1490	9.6993
26.9805	0.0054	0.1669	9.6951
26.9905	0.0197	0.1675	9.6879
27.0005	0.0413	0.1633	9.6676
27.0105	0.0664	0.1687	9.7429
27.0205	0.0042	0.1860	9.6999
27.0305	0.0090	0.1729	9.6921
27.0405	0.0209	0.1801	9.7046
27.0505	0.0377	0.1795	9.6191
27.0605	0.0203	0.1627	9.7076
27.0705	-0.0018	0.1543	9.6975
27.0805	0.0305	0.1825	9.7094
27.0905	0.0132	0.1657	9.7322
27.1005	0.0144	0.1783	9.7178
27.1105	0.0347	0.1531	9.6861
27.1205	0.0090	0.1693	9.6346
27.1305	0.0179	0.1537	9.6915
27.1405	0.0215	0.1693	9.6975
27.1505	0.0144	0.1729	9.6759
27.1605	0.0329	0.1669	9.6951
27.1705	0.0084	0.1836	9.6993
27.1805	0.0126	0.1830	9.7357
27.1905	0.0413	0.1663	9.7142
27.2005	0.0078	0.1807	9.6759
27.2105	0.0383	0.1771	9.7088
27.2205	0.0138	0.1747	9.6759
27.2305	-0.0060	0.1651	9.6478
27.2405	0.0269	0.1753	9.7094
27.2505	0.0203	0.1699	9.6604
27.2605	0.0132	0.1460	9.7052
27.2705	-0.0048	0.1699	9.6837
27.2805	0.0179	0.1675	9.6478
27.2905	0.0156	0.1747	9.7124
27.3005	-0.0120	0.1705	9.6729
27.3105	-0.0018	0.1543	9.6783
27.3205	0.0221	0.1448	9.7513
27.3305	0.0150	0.1789	9.7076
27.3405	0.0173	0.1627	9.7393
27.3505	0.0102	0.1430	9.6735
27.3605	0.0245	0.1549	9.6867
27.3705	0.0449	0.1783	9.6717
27.3805	-0.0042	0.1866	9.6466
27.3905	-0.0185	0.1735	9.6574
27.4005	0.0132	0.1717	9.6771
27.4105	0.0233	0.1651	9.7124
27.4205	0.0108	0.1729	9.6969
27.4305	0.0042	0.1657	9.7244
27.4405	0.0209	0.1741	9.6628
27.4505	0.0377	0.1789	9.7040
27.4605	0.0132	0.1735	9.6574
27.4705	0.0144	0.1555	9.7094
27.4805	0.0179	0.1615	9.7052
27.4905	0.0072	0.1627	9.7028
27.5005	-0.0018	0.1705	9.7130
27.5105	0.0299	0.1681	9.7088
27.5205	0.0024	0.1926	9.6699
27.5305	0.0215	0.1603	9.6927
27.5405	0.0305	0.3051	9.6909
27.5505	0.0078	0.1753	9.6765
27.5605	0.0000	0.1537	9.6987
27.5705	0.0060	0.1902	9.7046
27.5805	0.0096	0.1938	9.7136
27.5905	0.0401	0.1549	9.7070
27.6005	0.0299	0.1705	9.6538
27.6105	0.0036	0.1460	9.7076
27.6205	0.0185	0.1813	9.6885
27.6305	0.0150	0.1819	9.6681
27.6405	0.0179	0.1765	9.6951
27.6505	0.0203	0.1651	9.6903
27.6605	0.0179	0.1836	9.7058
27.6705	0.0215	0.1585	9.7028
27.6805	0.0191	0.1872	9.6981
27.6905	0.0036	0.1687	9.7328
27.7005	0.0383	0.1382	9.6777
27.7105	0.0162	0.1765	9.6580
27.7205	0.0221	0.1687	9.6783
27.7305	0.0048	0.1747	9.6646
27.7405	0.0419	0.1669	9.6777
27.7505	0.0138	0.1501	9.7112
27.7605	0.0269	0.1627	9.6670
27.7705	0.0078	0.1717	9.6658
27.7805	0.0120	0.1609	9.6801
27.7905	0.0144	0.1519	9.6837
27.8005	0.0203	0.1747	9.6987
27.8105	0.0209	0.0162	9.7208
27.8205	0.0156	0.1777	9.6849
27.8305	0.0251	0.1735	9.6939
27.8405	0.0341	0.1585	9.7369
27.8505	0.0365	0.1765	9.7286
27.8605	0.0156	0.1484	9.6867
27.8705	0.0347	0.1585	9.7136
27.8805	-0.1460	0.1687	9.6514
27.8905	0.0156	0.1795	9.6813
27.9005	0.0305	0.1717	9.7752
27.9105	0.0102	0.1920	9.6382
27.9205	0.0078	0.1448	9.7058
27.9305	0.0431	0.1603	9.7112
27.9405	-0.0036	0.1675	9.6885
27.9505	0.0144	0.1418	9.7375
27.9605	0.0215	0.1490	9.6885
27.9705	0.0269	0.1980	9.6867
27.9805	0.0209	0.1603	9.6867
27.9905	0.0162	0.1699	9.6777
28.0005	0.0293	0.1591	9.6807
28.0105	0.0072	0.1591	9.6909
28.0205	-0.0030	0.1334	9.6747
28.0305	0.0162	0.1687	9.6897
28.0405	0.0203	0.1789	9.6999
28.0505	0.0215	0.1783	9.6849
28.0605	0.0275	0.1537	9.7184
28.0705	-0.0156	0.1561	9.6520
28.0805	0.0012	0.1525	9.7040
28.0905	0.0287	0.1549	9.7136
28.1005	0.0203	0.1513	9.6897
28.1105	0.0263	0.1567	9.7196
28.1205	0.0299	0.1836	9.7160
28.1305	0.0000	0.1789	9.6789
28.1405	0.0096	0.1615	9.6885
28.1505	0.0102	0.1830	9.6891
28.1605	0.0365	0.1567	9.6670
28.1705	0.0072	0.1651	9.6610
28.1805	-0.0066	0.1747	9.6358
28.1905	0.0329	0.1675	9.7142
28.2005	0.0078	0.1705	9.7154
28.2105	0.0419	0.1555	9.7154
28.2206	0.0072	0.1561	9.7441
28.2306	0.0185	0.1926	9.6759
28.2406	0.0072	0.2901	9.6747
28.2506	0.0275	0.1603	9.6891
28.2606	0.0395	0.1711	9.6556
28.2706	0.0191	0.1609	9.7124
28.2806	0.0317	0.1651	9.6831
28.2906	0.0185	0.1848	9.7244
28.3006	0.0191	0.1825	9.6927
28.3106	0.0078	0.1645	9.7100
28.3206	0.0185	0.1729	9.6807
28.3306	0.0036	0.1603	9.6843
28.3406	0.0185	0.1699	9.6849
28.3506	0.0257	0.1795	9.7166
28.3606	0.0173	0.1603	9.7244
28.3706	0.0066	0.1478	9.7028
28.3806	0.0066	0.1579	9.6508
28.3906	0.0293	0.1819	9.6759
28.4006	0.0329	0.1651	9.6747
28.4106	-0.0096	0.1573	9.6897
28.4206	0.0377	0.1639	9.6574
28.4306	0.0221	0.1651	9.7082
28.4406	0.0150	0.1807	9.6753
28.4506	0.0461	0.1501	9.7118
28.4606	0.0132	0.1507	9.6873
28.4706	0.0036	0.1842	9.6849
28.4806	0.0287	0.1484	9.6777
28.4906	-0.1274	0.1854	9.6430
28.5006	-0.0036	0.1466	9.6759
28.5106	0.0156	0.1741	9.6927
28.5206	0.0257	0.1789	9.6951
28.5306	0.0144	0.1860	9.7070
28.5406	0.0407	0.1657	9.6915
28.5506	0.0144	0.1777	9.6765
28.5606	0.0508	0.1531	9.6939
28.5706	0.0048	0.1813	9.6741
28.5806	0.0000	0.1675	9.6897
28.5906	-0.0012	0.1687	9.6676
28.6006	0.0042	0.1657	9.6825
28.6106	0.0179	0.1567	9.7202
28.6206	0.0173	0.1579	9.7202
28.6306	0.0443	0.1735	9.6891
28.6406	0.0287	0.1663	9.7016
28.6506	0.0060	0.1759	9.6837
28.6606	0.0132	0.1693	9.6783
28.6706	-0.1352	0.1645	9.6861
28.6806	0.0054	0.1819	9.6831
28.6906	0.0084	0.0018	9.7022
28.7006	0.0072	0.1645	9.6346
28.7106	0.0138	0.1585	9.6957
28.7206	0.0114	0.1663	9.6903
28.7306	0.0018	0.1693	9.6999
28.7406	0.0221	0.1442	9.7154
28.7506	0.0096	0.1681	9.6861
28.7606	0.0239	0.1819	9.6945
28.7706	0.0299	0.1735	9.7340
28.7806	0.0239	0.1675	9.6771
28.7906	0.0209	0.1699	9.6652
28.8006	0.0114	0.1693	9.6813
28.8106	0.0030	0.1759	9.6873
28.8206	0.0179	0.1585	9.6945
28.8306	0.0526	0.1609	9.7346
28.8406	0.0072	0.1807	9.6897
28.8506	0.0150	0.1585	9.6945
28.8606	0.0299	0.1603	9.6831
28.8706	0.0371	0.1651	9.6975
28.8806	0.0191	0.1615	9.6765
28.8906	0.0443	0.1639	9.6987
28.9006	0.0269	0.1657	9.7094
28.9106	0.0491	0.1531	9.6795
28.9206	0.0179	0.1759	9.6927
28.9306	0.0102	0.1478	9.7040
28.9406	0.0263	0.1771	9.7196
28.9506	0.0185	0.1735	9.6843
28.9606	0.0162	0.1585	9.6801
28.9706	0.0269	0.1633	9.7058
28.9806	0.0371	0.1555	9.7088
28.9906	0.0000	0.1681	9.6885
29.0006	-0.0048	0.1591	9.6921
29.0106	0.0335	0.1908	9.6891
29.0206	0.0030	0.1789	9.6861
29.0306	0.0329	0.1854	9.6759
29.0406	0.0120	0.1507	9.7112
29.0506	0.0078	0.1717	9.7525
29.0606	0.0156	0.1789	9.6849
29.0706	0.0347	0.1573	9.7016
29.0806	0.0323	0.1729	9.7507
29.0906	0.0233	0.1765	9.6915
29.1006	0.0227	0.1687	9.7028
29.1106	0.0269	0.1729	9.6664
29.1206	0.0024	0.1615	9.6466
29.1306	0.0233	0.1603	9.6813
29.1406	0.0108	0.1639	9.7148
29.1506	0.0102	0.1657	9.6927
29.1606	0.0066	0.1753	9.7064
29.1706	0.0760	0.1513	9.7220
29.1806	0.0179	0.1902	9.6711
29.1906	0.0305	0.1561	9.7160
29.2006	0.0018	0.1633	9.6999
29.2106	0.0263	0.1633	9.6257
29.2206	0.0012	0.1543	9.6945
29.2306	0.0048	0.1531	9.7250
29.2406	0.0251	0.1436	9.7250
29.2506	0.0227	0.1860	9.5264
29.2606	0.0742	0.1639	9.6771
29.2706	0.0162	0.1579	9.6927
29.2806	0.0072	0.1699	9.6568
29.2906	0.0126	0.1699	9.6777
29.3006	0.0377	0.1860	9.7130
29.3106	0.0144	0.2022	9.6777
29.3206	0.0245	0.1807	9.7495
29.3306	0.0502	0.1627	9.7357
29.3406	0.0353	0.1717	9.6747
29.3506	0.0550	0.1484	9.7154
29.3606	0.0263	0.1717	9.6520
29.3706	0.0275	0.1597	9.6574
29.3806	0.0132	0.1657	9.7058
29.3906	0.0293	0.1567	9.6933
29.4006	0.0323	0.1759	9.7076
29.4106	0.0108	0.1693	9.6921
29.4206	0.0173	0.1735	9.6855
29.4306	0.0197	0.1549	9.6903
29.4406	0.0084	0.1813	9.6628
29.4506	0.0191	0.1663	9.6969
29.4606	0.0030	0.1860	9.6885
29.4706	0.0263	0.1555	9.6903
29.4806	0.0329	0.1872	9.7214
29.4906	0.0389	0.1597	9.7160
29.5006	-0.0006	0.1735	9.6406
29.5106	0.0443	0.1591	9.6957
29.5206	0.0239	0.1854	9.6951
29.5306	0.0060	0.1460	9.6801
29.5406	0.0257	0.1669	9.6933
29.5506	0.0048	0.1783	9.6652
29.5606	0.0383	0.1741	9.7250
29.5706	0.0090	0.1609	9.6693
29.5806	0.0221	0.1908	9.7011
29.5906	0.0401	0.1842	9.6945
29.6006	-0.0006	0.1783	9.7011
29.6106	0.0126	0.1537	9.6843
29.6206	0.0185	0.1549	9.7142
29.6306	0.0150	0.1507	9.6652
29.6406	0.0042	0.1669	9.7184
29.6506	0.0335	0.1603	9.6909
29.6606	0.0305	0.1848	9.6382
29.6706	0.0317	0.1711	9.7328
29.6806	0.0215	0.1765	9.6993
29.6906	0.0215	0.1657	9.7453
29.7006	-0.0114	0.1675	9.6777
29.7106	0.0162	0.1567	9.6921
29.7206	0.0221	0.1795	9.6963
29.7306	0.0197	0.1926	9.7118
29.7406	0.0215	0.1795	9.6622
29.7506	0.0006	0.1819	9.6915
29.7606	0.0275	0.1645	9.6610
29.7706	0.0185	0.1537	9.6885
29.7806	0.0263	0.1603	9.7136
29.7906	0.0281	0.1914	9.6849
29.8006	-0.0048	0.1711	9.6921
29.8106	0.0090	0.1753	9.7076
29.8206	0.0185	0.1501	9.7148
29.8306	0.0359	0.1657	9.7070
29.8406	0.0066	0.1633	9.6616
29.8506	0.0419	0.1609	9.6861
29.8606	0.0132	0.1783	9.7046
29.8706	0.0066	0.1663	9.7142
29.8806	0.0431	0.1531	9.7022
29.8906	0.0317	0.1555	9.6670
29.9006	0.0150	0.1501	9.6855
29.9106	0.0275	0.1555	9.6969
29.9206	0.0353	0.1741	9.7058
29.9306	0.0072	0.2997	9.7028
29.9406	0.0383	0.1705	9.7680
29.9506	0.0329	0.1717	9.7070
29.9606	0.0120	0.1669	9.6795
29.9706	0.0114	0.1860	9.7118
29.9806	0.0323	0.1795	9.7040
29.9906	0.0012	0.1603	9.6538
30.0006	0.0395	0.1663	9.6915
30.0106	0.0371	0.1741	9.7393
30.0206	0.0066	0.1555	9.6909
30.0306	0.0532	0.1645	9.6921
30.0406	0.0144	0.1777	9.7022
30.0506	0.0742	0.1472	9.6873
30.0606	0.0138	0.1759	9.6646
30.0706	0.0257	0.1579	9.6687
30.0806	0.0054	0.1801	9.6789
30.0906	0.0311	0.1675	9.6999
30.1006	-0.0006	0.1693	9.6861
30.1106	0.0108	0.1693	9.6819
30.1206	0.0317	0.1765	9.6885
30.1306	0.0156	0.1699	9.6927
30.1406	0.0126	0.1687	9.7034
30.1506	0.0156	0.1681	9.6921
30.1606	0.0263	0.1747	9.6592
30.1706	0.0209	0.1531	9.7106
30.1806	0.0108	0.1651	9.6676
30.1906	0.0084	0.1579	9.7160
30.2006	0.0227	0.1687	9.6855
30.2106	0.0335	0.1585	9.6658
30.2206	0.0066	0.1735	9.7154
30.2306	0.0024	0.1501	9.6879
30.2406	0.0006	0.1675	9.7052
30.2506	-0.1280	0.1741	9.7118
30.2606	0.0090	0.1723	9.6801
30.2706	0.0150	0.1693	9.7124
30.2806	0.0323	0.1669	9.7058
30.2906	0.0072	0.1747	9.6903
30.3006	0.0437	0.1645	9.6921
30.3106	-0.0024	0.1597	9.6957
30.3206	-0.0060	0.1627	9.6921
30.3306	0.0018	0.1448	9.6777
30.3406	0.0084	0.1854	9.7178
30.3506	0.0245	0.1651	9.6873
30.3606	0.0281	0.1615	9.6843
30.3706	0.0090	0.1753	9.6681
30.3806	0.0120	0.0048	9.7130
30.3906	0.0138	0.1902	9.6981
30.4006	0.0018	0.1591	9.6711
30.4106	0.0203	0.1735	9.7226
30.4206	0.0413	0.1669	9.6670
30.4306	0.0185	0.1663	9.6897
30.4406	0.0395	0.1777	9.6903
30.4506	0.0132	0.1795	9.6580
30.4606	0.0179	0.1597	9.7232
30.4706	0.0179	0.1651	9.7082
30.4806	0.0060	0.1651	9.6849
30.4906	-0.0036	0.1723	9.7034
30.5006	-0.0066	0.1723	9.6981
time	accelx	accely	accelz
0.0000	0.0479	0.0167	10.4165
0.0100	1.1043	-0.0407	8.2390
0.0200	0.1280	-0.3523	8.5597
0.0300	0.2130	-0.2913	9.7591
0.0400	-0.3942	-0.2985	9.6293
0.0500	-1.2305	0.7603	9.4085
0.0600	1.7246	0.9876	8.9437
0.0700	0.0855	1.6624	9.1782
0.0800	1.2831	0.4564	6.7956
0.0900	0.3230	0.7681	7.6851
0.1000	0.3697	0.0544	9.9014
0.1100	0.2566	-0.0443	9.9140
0.1200	0.8674	0.2859	11.8468
0.1300	0.2160	-0.6586	11.5351
0.1400	0.1795	-0.2405	10.3716
0.1500	-0.6873	0.6915	12.6819
0.1600	-0.8710	0.1944	10.2586
0.1700	0.7346	1.0762	8.5023
0.1800	0.0622	-0.0329	6.3475
0.1900	0.2955	0.0197	9.4319
0.2000	0.1968	0.8961	10.3118
0.2100	1.3190	0.7830	11.7290
0.2200	0.2034	-0.4833	7.9740
0.2300	0.2632	-1.4752	8.8169
0.2400	0.1137	-0.1699	8.3473
0.2500	-0.1466	0.0814	8.9587
0.2600	-0.6730	0.6072	8.7673
0.2700	-1.9633	0.3793	10.3603
0.2800	0.3828	1.6714	10.8293
0.2900	-0.6197	0.5731	10.2927
0.3000	-0.4678	0.8207	7.8071
0.3100	0.2333	0.0108	9.5700
0.3200	0.8453	0.5773	9.3673
0.3300	0.7364	-0.5527	9.6239
0.3400	0.6359	-0.8028	10.4015
0.3500	0.9176	-0.6275	10.4721
0.3600	0.6120	0.0754	9.3673
0.3700	0.3260	0.8142	9.7531
0.3800	-0.6120	0.2076	9.6269
0.3900	-0.9458	-0.7472	8.6793
0.4000	0.2871	0.5970	10.5571
0.4100	0.7765	1.2712	8.7912
0.4200	0.1789	0.8746	9.1190
0.4300	-0.3117	0.6299	9.3864
0.4400	0.7316	0.2877	10.0971
0.4500	1.1593	-1.3920	9.4438
0.4600	-0.1053	-0.1597	9.5527
0.4700	-1.0816	-0.1681	10.8993
0.4800	0.1830	-0.2231	9.2249
0.4900	-0.0114	0.5312	10.3334
0.5000	-0.2381	0.2656	8.9724
0.5100	-0.6030	1.0594	8.4347
0.5200	-0.0365	1.1222	9.5294
0.5300	0.0299	0.3224	11.1942
0.5400	0.8674	0.1286	9.3505
0.5500	-0.0413	0.7729	7.8311
0.5600	0.8806	-0.8016	8.9443
0.5700	0.1292	-2.1625	9.4492
0.5800	1.3298	-0.2118	10.5032
0.5900	-1.3256	0.3619	9.9864
0.6000	-2.0788	0.6999	10.0845
0.6100	-0.4457	0.7184	8.2725
0.6200	-0.6485	1.0313	9.5282
0.6300	0.0233	0.4098	7.7132
0.6400	0.5892	1.4375	11.0267
0.6500	0.2548	-0.1119	10.4177
0.6600	1.1246	-0.5809	9.5838
0.6700	1.3172	-0.5366	9.3804
0.6800	-0.9948	-0.8118	10.3489
0.6900	-0.8130	0.2590	10.2269
0.7000	-1.8562	-0.7914	9.6191
0.7100	-1.1420	1.4028	8.2337
0.7200	-0.1113	-0.0335	7.1910
0.7300	-1.3854	1.1521	9.2650
0.7400	-0.1519	0.6305	7.8634
0.7500	0.9739	-0.1065	11.7816
0.7600	0.2680	-1.2867	9.1393
0.7700	-0.3272	-1.2084	10.4207
0.7800	0.5701	-0.7495	10.4171
0.7900	-1.6140	-0.1860	8.4837
0.8000	0.9236	0.5432	9.3607
0.8100	-1.4411	-0.1962	9.2907
0.8200	0.4953	1.5123	9.1172
0.8300	0.7495	1.3178	8.4370
0.8400	-1.1252	1.2090	10.5302
0.8500	-0.0150	0.4893	11.9012
0.8600	0.7675	-0.0814	10.8765
0.8700	1.2927	-0.7184	10.8508
0.8800	-0.0389	-1.7097	7.9908
0.8900	0.9541	-0.9410	9.8374
0.9000	-0.5450	-0.0724	8.2923
0.9100	1.1013	-0.1149	9.9625
0.9200	-0.3314	0.8345	8.5531
0.9300	0.1747	0.9625	10.8197
0.9400	0.5360	0.9278	9.4223
0.9500	-0.8704	0.9727	8.9198
0.9600	-0.2620	0.5988	9.1160
0.9700	0.0688	0.0018	8.2863
0.9800	0.3703	-0.3840	8.1780
0.9900	0.5085	-1.5727	10.4123
1.0000	0.5414	-0.1693	10.3824
1.0100	-0.4050	-0.7507	9.0795
1.0200	1.6433	0.4217	10.5278
1.0300	0.4528	0.5826	10.5170
1.0400	-0.8154	0.7771	8.6907
1.0500	-0.9601	1.3298	9.1746
1.0600	-1.7144	1.0163	9.7543
1.0700	0.4205	0.3069	9.3625
1.0800	0.2901	0.7525	8.8678
1.0900	-0.7819	0.2058	9.9678
1.1000	1.1061	-0.6275	9.5706
1.1100	0.3242	-0.3912	10.2000
1.1200	0.5862	-1.7133	10.3884
1.1300	1.0343	-0.4259	9.1794
1.1400	0.2357	0.1789	10.0079
1.1500	-1.1318	0.0526	7.7802
1.1600	-0.4588	0.0610	7.5541
1.1700	-1.1838	0.7795	10.5278
1.1800	-0.2381	0.6191	10.5846
1.1900	0.0987	1.8784	10.1359
1.2000	0.7914	1.0433	9.7686
1.2100	0.3123	1.4608	10.2191
1.2200	-0.1813	-0.5844	9.1962
1.2300	1.1186	-0.4122	9.4588
1.2400	0.3763	-0.3852	10.2311
1.2500	0.9380	-0.7340	10.5924
1.2600	1.2161	-0.0221	11.3461
1.2700	-0.5946	-0.5198	8.7667
1.2800	0.5115	1.0301	9.7052
1.2900	0.0849	0.8159	10.5768
1.3000	-1.2742	0.2668	9.7854
1.3100	-0.4911	0.6096	10.1431
1.3200	-0.5252	1.5990	10.1868
1.3300	0.2447	1.1491	8.0404
1.3400	-0.3535	0.7472	10.0247
1.3500	0.8919	0.6766	9.8985
1.3600	0.6078	0.2596	7.9447
1.3700	0.5109	-0.6173	11.2277
1.3800	0.2710	-0.6072	9.1441
1.3900	0.1777	-0.8118	9.5042
1.4000	0.3045	-0.0933	7.9675
1.4100	0.5073	-0.0425	9.2638
1.4200	-1.5990	0.2967	10.8388
1.4300	-0.0891	1.2042	10.8681
1.4400	-0.0419	-0.1705	7.7730
1.4500	-0.6580	1.0660	8.8839
1.4600	-0.4122	0.3763	7.0271
1.4700	0.8853	0.6616	11.0602
1.4800	0.2279	0.6245	10.6869
1.4900	0.7448	-0.0018	8.1272
1.5000	0.5803	-0.9212	8.3605
1.5100	0.4582	0.6927	10.9387
1.5200	1.2126	-0.5575	9.5030
1.5300	-0.2602	-0.5988	9.4911
1.5400	-0.5276	-0.7472	9.9822
1.5500	1.7408	0.9559	8.7810
1.5600	-1.0738	0.5946	9.7561
1.5700	-0.1232	0.8542	9.8141
1.5800	0.3075	0.1950	8.2307
1.5900	1.4800	0.9541	7.9621
1.6000	0.4241	0.3721	11.6733
1.6100	-0.4540	0.3631	7.6624
1.6200	0.1914	0.3063	9.5066
1.6300	-0.0508	-0.8602	10.6767
1.6400	0.1633	0.0341	10.5194
1.6500	-0.9697	-0.6802	9.8231
1.6600	0.3051	0.4253	8.6709
1.6700	-0.3529	0.0802	10.2837
1.6800	-0.0820	0.1484	7.6528
1.6900	-0.1513	0.2028	9.8416
1.7000	0.7890	1.7934	8.3898
1.7100	0.3894	0.3601	11.8516
1.7200	-0.6293	0.0814	7.2293
1.7300	0.2626	-0.3553	9.9990
1.7400	1.0654	-0.3846	7.7318
1.7500	0.4175	-1.0205	11.4903
1.7600	0.5557	-1.1773	9.1770
1.7700	-0.3224	-1.0313	10.8424
1.7800	0.6401	-0.0497	10.1844
1.7900	-0.6796	-1.1545	11.1571
1.8000	-1.3615	0.9230	8.6638
1.8100	0.0138	1.2281	9.9499
1.8200	-0.7400	0.9326	10.1252
1.8300	0.4780	1.1180	9.2733
1.8400	0.9565	-0.3428	7.2688
1.8500	0.2644	1.4668	9.8943
1.8600	-1.2796	-0.8255	9.9379
1.8700	-0.2674	-0.2189	7.1282
1.8800	-0.2052	0.4146	11.1995
1.8900	1.1168	-1.1952	8.2378
1.9000	0.3446	-0.8058	11.6632
1.9100	2.0530	-0.3703	7.6361
1.9200	-0.1424	-0.1537	9.5515
1.9300	0.3763	1.0654	7.4979
1.9400	-0.0951	0.9254	11.1457
1.9500	-0.7125	1.5691	9.1812
1.9600	-0.5940	0.2381	7.6546
1.9700	-0.3063	0.1053	6.8572
1.9800	0.2279	0.0293	8.6464
1.9900	0.3206	0.3787	9.7441
2.0000	-0.4457	-0.5426	9.7310
2.0100	0.3571	-0.7310	9.3942
2.0200	0.0742	-1.0959	10.7874
2.0300	-0.9643	-1.5458	10.5966
2.0400	1.1432	-1.3340	8.5836
2.0500	-0.0574	0.4893	10.9100
2.0600	-0.4792	0.1101	9.3050
2.0700	-0.0114	0.5755	12.5120
2.0800	-0.4666	1.3352	9.7058
2.0900	0.0658	0.7878	8.6195
2.1000	0.9272	1.7856	10.0049
2.1100	-0.1161	1.0373	7.5840
2.1200	0.7998	0.8698	7.7419
2.1300	-0.5258	0.1202	8.8540
2.1400	0.2016	-0.9817	8.4837
2.1500	0.3739	-0.7436	10.2873
2.1600	-0.2453	-0.4869	8.1918
2.1700	0.7621	-1.3053	9.5449
2.1800	-0.4959	-0.4169	9.0556
2.1900	-0.4026	0.6628	9.3451
2.2000	0.5563	0.7286	8.9880
2.2100	-1.4674	-0.1406	9.4678
2.2200	-0.0467	-0.5611	10.1389
2.2300	-0.7011	0.6407	9.3206
2.2400	-0.0048	0.8429	8.7278
2.2500	-1.0666	-0.0951	9.8189
2.2600	-0.4301	-0.0144	9.6364
2.2700	-0.1878	-1.0899	9.3212
2.2800	0.7035	0.3745	8.1021
2.2900	-0.2578	-0.0341	9.0143
2.3000	0.8088	1.2335	11.5190
2.3100	-0.4756	-0.1220	9.6077
2.3200	0.2225	1.3585	9.4031
2.3300	-1.3262	0.2620	9.7106
2.3400	0.4738	1.6887	8.4717
2.3500	-0.0239	1.0163	10.7132
2.3600	-0.0562	1.4231	10.2580
2.3700	-0.2082	0.9583	8.2863
2.3800	-0.5294	0.7753	7.7348
2.3900	-0.8770	-0.7400	7.9387
2.4000	0.2495	0.7364	8.4059
2.4100	0.0963	-0.7340	10.1162
2.4200	0.7681	-1.5607	8.6123
2.4300	0.2692	-1.4530	10.4709
2.4400	-0.0664	-0.2865	9.6676
2.4500	0.1992	-1.1276	7.7090
2.4600	-0.6263	-0.5826	7.2107
2.4700	0.1531	-0.3338	9.9451
2.4800	-0.3194	0.9697	8.6638
2.4900	-1.5805	-0.9858	8.9557
2.5000	0.2118	1.1743	10.5146
2.5100	-0.3344	0.0855	10.2364
2.5200	0.3535	0.5264	7.9824
2.5300	-0.3290	-0.5001	11.0955
2.5400	-0.2267	0.0120	10.0331
2.5500	-0.1543	-2.5256	10.3256
2.5600	0.4050	-0.4062	9.2662
2.5700	-0.4905	-1.2550	7.9124
2.5800	0.8883	-0.2925	9.7226
2.5900	-0.6096	-1.1587	11.1690
2.6000	-0.1525	-0.7561	8.8151
2.6100	-0.3284	0.0532	7.4410
2.6200	0.0048	0.5049	10.3016
2.6300	0.2662	-0.8213	11.2965
2.6400	0.8692	0.3739	8.6775
2.6500	0.0993	-0.7196	7.8424
2.6600	0.1202	-0.4463	10.7282
2.6700	0.5521	-0.7484	11.6446
2.6800	1.2473	-0.1573	9.0628
2.6900	1.1647	-1.1342	10.8352
2.7000	0.1669	0.7023	9.0065
2.7100	-0.5563	-0.2656	10.0085
2.7200	0.6281	0.7878	9.5383
2.7300	-1.8574	0.2106	11.5399
2.7400	0.3272	1.8191	8.4281
2.7500	-0.0837	0.2118	8.3886
2.7600	0.0808	1.0469	9.5473
2.7700	1.0606	0.3452	9.6119
2.7800	0.0299	0.6592	9.4139
2.7900	0.5396	-0.4241	10.8478
2.8000	-0.3003	0.4792	8.8193
2.8100	0.1579	-1.5446	8.5992
2.8200	1.5631	-0.3888	8.9479
2.8300	1.0684	-0.4768	11.6416
2.8400	1.2275	-0.1531	9.0981
2.8500	-0.3799	-1.6624	11.8821
2.8600	-0.3236	0.9769	9.2518
2.8700	-0.1125	-0.3200	11.3168
2.8800	-0.0820	0.8716	8.9395
2.8900	-0.0263	0.1448	10.9070
2.9000	-0.1872	0.8327	8.4388
2.9100	-0.2578	0.8716	9.0753
2.9200	0.9272	0.8333	10.3603
2.9300	-1.4381	-0.1095	8.4544
2.9400	0.8261	0.7035	9.7417
2.9500	0.7914	-1.1378	11.7325
2.9600	0.8441	-0.5330	8.6398
2.9700	1.0457	-1.3029	10.8233
2.9800	0.2871	-0.2949	7.9884
2.9900	-0.5892	0.4265	9.0382
3.0000	-0.1059	0.4648	10.7162
3.0100	-0.7382	1.2933	9.9044
3.0200	0.0341	1.1324	9.4241
3.0300	-0.7023	0.5079	10.9615
3.0400	-0.6323	-0.1466	8.9916
3.0500	0.3697	0.6479	11.8827
3.0600	0.2100	0.0138	7.9848
3.0700	0.7783	0.3667	11.1619
3.0800	0.1615	-0.9529	10.3734
3.0900	0.0814	0.1783	11.1547
3.1000	0.5982	-0.7878	11.0279
3.1100	-0.5719	0.6239	10.8562
3.1200	-0.3045	-0.1053	11.5268
3.1300	0.9834	1.0570	8.0099
3.1400	-1.5260	0.7932	9.6448
3.1500	0.4038	1.2754	9.8380
3.1600	-1.0498	-0.1513	10.0295
3.1700	0.4624	0.6837	7.7270
3.1800	1.1222	-0.1023	12.7004
3.1900	0.0879	0.7789	8.7140
3.2000	-0.2297	-0.6221	10.2131
3.2100	0.5749	0.6138	11.3240
3.2200	-0.3589	-1.4728	8.8773
3.2300	0.7866	-0.2883	9.2333
3.2400	-0.7681	0.2046	10.8807
3.2500	0.3966	1.1336	9.2141
3.2600	-1.1186	1.0929	9.7118
3.2700	-0.1226	1.1055	9.6616
3.2800	-0.0532	0.3900	11.5118
3.2900	-0.4169	1.2239	9.1483
3.3000	-1.1342	0.6879	9.9559
3.3100	-0.9589	0.7292	9.2063
3.3200	-0.1938	0.9571	10.7132
3.3300	-0.1998	-0.4421	7.1144
3.3400	0.0120	0.7017	8.8863
3.3500	-1.1683	-0.8578	9.3708
3.3600	-0.0179	0.3589	6.9625
3.3700	0.1597	-0.0712	10.3788
3.3800	0.9224	0.1687	8.3892
3.3900	0.7771	-0.5821	10.0582
3.4000	2.1278	0.6778	10.1868
3.4100	-0.5264	-1.2221	11.3479
3.4200	-0.7232	0.3248	8.9515
3.4300	-1.0654	-0.2674	11.9981
3.4400	1.3591	1.2084	9.3708
3.4500	0.4068	0.5743	10.0510
3.4600	-1.2837	0.9254	9.1645
3.4700	0.0867	1.3489	8.2534
3.4800	-0.3063	2.0279	7.7437
3.4900	-0.1166	-0.2453	8.2043
3.5000	0.6359	1.8622	8.7930
3.5100	-0.1519	0.0359	9.1513
3.5200	0.7017	0.4295	9.6921
3.5300	0.1741	-0.8249	11.7074
3.5400	0.0610	-1.3513	9.3798
3.5500	1.5111	0.1430	10.9956
3.5600	-0.3069	-1.4913	9.0903
3.5700	1.8502	-0.3248	6.4265
3.5800	-0.4714	-0.7836	11.2301
3.5900	0.2602	0.7155	9.6646
3.6000	0.1466	1.1898	13.3268
3.6100	-0.9685	1.4895	10.0229
3.6200	-0.0150	0.3153	8.7852
3.6300	-0.0299	1.4327	8.7074
3.6400	-0.2608	0.4768	7.3262
3.6500	0.4666	0.3912	7.7533
3.6600	-0.7155	0.1657	8.0016
3.6700	1.0128	0.9613	8.9354
3.6800	-0.0042	-0.8620	8.6931
3.6900	0.1926	-1.4931	9.9631
3.7000	0.8183	-0.0359	8.6494
3.7100	-0.3667	-1.0038	11.4681
3.7200	0.9517	0.0072	9.5078
3.7300	-1.3388	-1.1342	10.0175
3.7400	0.1777	-0.1256	7.3711
3.7500	-0.4726	-0.4241	11.0661
3.7600	-2.2708	0.8237	9.2931
3.7700	-0.1029	0.4738	9.8021
3.7800	-0.6820	2.5125	10.7581
3.7900	0.0179	0.5719	8.9162
3.8000	-0.4433	1.2652	10.5140
3.8100	-1.6534	0.1304	12.8494
3.8200	1.1312	1.4201	9.4031
3.8300	0.0963	0.1400	7.1946
3.8400	0.9840	0.5204	10.5672
3.8500	2.1757	-0.9045	10.5062
3.8600	0.1226	-0.8955	8.8845
3.8700	1.8143	-1.2538	9.6640
3.8800	-1.0409	-0.2447	13.5230
3.8900	1.6756	0.2913	7.8652
3.9000	0.5665	0.2058	8.4741
3.9100	0.0885	-0.4044	7.2012
3.9200	-1.1438	-0.3033	13.0976
3.9300	-1.1910	-0.3787	10.3106
3.9400	0.2955	0.6748	8.5794
3.9500	0.1579	1.4423	7.6624
3.9600	-0.4307	0.9846	10.2628
3.9700	0.8991	1.3107	7.7001
3.9800	0.7250	0.7531	11.2636
3.9900	-0.9733	-0.0861	10.6755
4.0000	-0.9547	-0.2608	14.1876
4.0100	0.6287	-0.8812	8.6243
4.0200	2.5113	-0.1161	8.0165
4.0300	-0.4433	-1.0050	11.2695
4.0400	0.9894	1.1623	12.8063
4.0500	-0.5844	-0.5282	7.3722
4.0600	-0.1567	1.1587	7.8711
4.0700	-1.8197	-0.9559	11.8899
4.0800	-1.3830	0.2776	10.7353
4.0900	-0.2686	1.2616	7.5553
4.1000	0.1155	0.9368	9.0311
4.1100	-0.4690	0.2746	7.3968
4.1200	0.4223	-0.4313	11.4753
4.1300	-0.3583	0.8124	13.0444
4.1400	-0.2644	-1.1204	8.4119
4.1500	0.7005	0.2154	9.4115
4.1600	0.5880	-0.3739	8.7780
4.1700	1.1037	-0.0921	8.7900
4.1800	-0.7992	-0.0467	12.9642
4.1900	-0.4564	0.7041	7.8347
4.2000	-0.9667	0.0335	6.2464
4.2100	-1.4482	1.1444	10.5152
4.2200	-0.7280	0.7962	11.5381
4.2300	-1.3741	-0.1848	8.5908
4.2400	1.2299	0.9912	7.8281
4.2500	-0.5952	-0.2943	7.9998
4.2600	0.3009	-0.1663	5.8935
4.2700	0.1603	0.1549	10.7682
4.2800	1.1103	0.0269	11.0703
4.2900	-0.6144	-0.0024	14.2145
4.3000	0.2447	0.0030	9.1208
4.3100	0.0526	-1.7234	7.4333
4.3200	1.9795	0.0556	9.2386
4.3300	-0.9021	-1.3041	7.2353
4.3400	0.4439	-0.4774	12.6813
4.3500	-0.5324	-0.3547	13.5140
4.3600	-0.6885	-0.2423	12.0699
4.3700	1.3759	1.3669	12.1627
4.3800	-0.2632	0.2847	8.5573
4.3900	0.3164	1.1617	6.1495
4.4000	-0.4050	0.5527	5.8528
4.4100	-0.1250	1.5374	7.6379
4.4200	-0.3571	0.1418	4.6612
4.4300	-0.6203	1.8628	10.6959
4.4400	0.0718	0.0329	13.4829
4.4500	-0.0042	-0.7729	11.4634
4.4600	0.4660	-0.8010	10.9106
4.4700	2.3659	-1.1797	10.7676
4.4800	0.6096	-0.6132	7.7019
4.4900	0.7591	-0.7777	6.3870
4.5000	-0.3434	-0.5886	8.7756
4.5100	-0.6389	-0.6604	6.3553
4.5200	0.0365	0.2901	10.1587
4.5300	-2.4018	0.0604	11.3760
4.5400	0.4576	1.4638	12.1896
4.5500	0.3828	0.5832	10.8167
4.5600	0.6197	1.2461	11.6901
4.5700	0.4337	0.0993	8.3551
4.5800	0.6359	-1.8078	8.3216
4.5900	0.6173	0.2560	8.4496
4.6000	0.3470	-1.2897	9.0466
4.6100	0.0084	0.0120	9.9373
4.6200	0.2656	0.3170	6.9164
4.6300	0.6443	0.3141	7.0989
4.6400	-0.7555	-0.0879	8.4837
4.6500	-1.3759	0.6538	8.6500
4.6600	0.0341	0.2237	10.3214
4.6700	-0.0036	-0.7735	9.3696
4.6800	0.0329	0.7555	9.4414
4.6900	-0.2560	0.3882	8.9126
4.7000	-0.2626	0.7292	10.8011
4.7100	-0.9763	1.1462	10.4350
4.7200	0.6132	2.0429	12.1519
4.7300	0.0449	0.0293	14.6787
4.7400	0.6353	-0.8644	12.7112
4.7500	1.3980	-0.2835	11.9096
4.7600	-0.0514	-1.7312	12.2883
4.7700	2.3372	-0.2261	8.6183
4.7800	-1.0122	0.6096	14.3808
4.7900	-0.4959	2.0052	8.5681
4.8000	-1.7162	0.4756	9.6909
4.8100	-1.2018	1.2610	12.2392
4.8200	0.8788	0.5079	11.6315
4.8300	-1.4704	1.3669	9.5138
4.8400	0.9081	0.9039	6.8524
4.8500	-0.2279	-1.1001	6.2034
4.8600	0.6413	1.0708	7.9465
4.8700	0.6443	-0.2369	8.7655
4.8800	0.1274	0.9141	8.5872
4.8900	-0.6054	-0.1777	6.0395
4.9000	0.2387	-1.1324	8.6117
4.9100	0.8937	-1.4973	8.1601
4.9200	0.5079	-0.8859	8.3503
4.9300	0.8309	0.5982	10.8047
4.9400	0.4774	0.0706	11.1619
4.9500	0.6730	0.3817	8.3557
4.9600	-0.6126	0.7316	13.6564
4.9700	-0.5091	1.5230	11.0261
4.9800	-1.2377	0.4056	11.5920
4.9900	-0.1986	-0.1813	11.0691
5.0000	0.3224	0.1406	9.0257
5.0100	0.3607	-0.0251	6.8315
5.0200	0.2853	0.2692	9.0592
5.0300	-0.0491	-1.1216	7.7874
5.0400	0.5647	0.7765	7.9358
5.0500	0.3284	-0.4020	9.9290
5.0600	-0.7609	-2.3438	9.2500
5.0700	1.0074	0.8686	11.3964
5.0800	-0.5001	-0.7220	11.3234
5.0900	-0.3069	2.0225	9.3344
5.1000	-0.1920	0.6616	10.5696
5.1100	-0.8273	2.1487	9.3577
5.1200	-0.2758	0.7944	6.1417
5.1300	-0.1681	0.5270	9.6305
5.1400	1.6145	1.0259	9.0454
5.1500	-0.8764	0.7501	8.0219
5.1600	-0.7807	0.5109	12.8536
5.1700	-0.1830	-0.4409	13.1790
5.1800	0.4481	0.6963	6.9176
5.1900	0.5826	-0.5665	4.7874
5.2000	1.7773	-0.6437	10.0582
5.2100	1.2957	0.0269	9.9702
5.2200	-0.6144	0.2046	9.2691
5.2300	-0.8201	0.3691	11.6243
5.2400	-0.6329	0.6604	11.9180
5.2500	-0.2100	0.4822	10.5361
5.2600	-1.0810	-0.3368	6.5713
5.2700	0.2961	-0.7346	9.0879
5.2800	-0.1525	1.4034	11.2277
5.2900	0.2524	1.1587	9.8063
5.3000	0.1537	0.6042	8.8049
5.3100	0.6532	-0.3757	7.6002
5.3200	0.0915	0.5569	9.5013
5.3300	-0.4935	0.1478	12.5862
5.3400	1.2694	-0.1286	8.7691
5.3500	-0.5832	-0.8572	8.5483
5.3600	-0.2118	0.1908	9.9888
5.3700	1.1898	0.5474	8.3988
5.3800	-0.3805	0.2171	9.0101
5.3900	1.7043	-0.9129	8.0769
5.4000	0.0544	-1.8891	9.2440
5.4100	-0.3153	-0.3027	9.0394
5.4200	-0.2722	1.3011	10.3226
5.4300	-2.2696	0.1053	11.6476
5.4400	1.0175	1.5679	7.7294
5.4500	-1.1121	-0.7478	7.2771
5.4600	0.2142	0.7639	7.5380
5.4700	-0.1944	1.2383	12.2057
5.4800	0.8512	0.0598	10.1084
5.4900	0.1998	0.0891	8.6410
5.5000	-1.1916	-0.5707	8.0231
5.5100	-1.7348	1.3699	8.3246
5.5200	-0.5605	0.5426	11.7768
5.5300	0.3380	1.2203	8.9461
5.5400	-1.4076	-0.1035	7.8287
5.5500	1.4267	0.9924	7.3519
5.5600	2.1105	1.7767	11.6440
5.5700	0.5653	-1.7803	7.1437
5.5800	1.3262	-0.8333	7.4087
5.5900	-1.1073	-1.3567	11.0458
5.6000	0.5605	-0.4660	10.9525
5.6100	-2.7553	0.1687	8.1798
5.6200	-1.1617	-0.4702	12.0843
5.6300	1.2885	1.5152	13.0253
5.6400	-1.0217	-0.8746	8.7015
5.6500	0.5222	1.1725	8.8331
5.6600	0.3559	-0.3529	12.1776
5.6700	0.0909	0.3476	12.2943
5.6800	1.7629	1.0917	6.3523
5.6900	-2.2133	-0.6766	11.9479
5.7000	-1.4435	0.3428	7.7383
5.7100	-0.4582	-0.2046	9.7489
5.7200	0.3123	0.7352	8.9252
5.7300	-1.7629	0.8776	11.3952
5.7400	-0.0431	0.3159	9.9110
5.7500	1.4399	0.2339	7.5009
5.7600	-0.2393	-0.3655	11.4849
5.7700	0.6903	0.5940	8.5824
5.7800	-0.9553	-1.4560	12.3571
5.7900	-0.0365	-0.5653	11.5848
5.8000	0.4140	-0.5450	9.7363
5.8100	-1.0953	-0.3470	7.9836
5.8200	0.1424	1.8879	8.8875
5.8300	-1.4991	0.1543	6.4959
5.8400	-0.4666	1.4142	10.2987
5.8500	-1.2861	-0.4510	8.9144
5.8600	-0.6700	-1.1599	8.2229
5.8700	1.2323	1.4596	12.2123
5.8800	-0.0341	0.4373	9.7298
5.8900	0.3021	0.8770	10.8029
5.9000	-0.2261	-0.0586	10.1084
5.9100	0.5826	-0.3063	10.6336
5.9200	0.2662	0.8668	9.1567
5.9300	-0.3488	-0.3763	8.3473
5.9400	1.4578	0.7627	9.5449
5.9500	1.4991	-0.4756	12.3547
5.9600	3.0137	1.0875	6.1429
5.9700	-1.9693	0.9021	11.7738
5.9800	-0.1765	0.1041	11.3180
5.9900	1.7288	0.4971	8.4424
6.0000	-2.9294	0.1848	11.3706
6.0100	0.3888	0.4983	7.1437
6.0200	-1.8742	0.2704	10.6145
6.0300	0.2375	0.3523	11.0009
6.0400	1.0068	0.0682	8.0596
6.0500	-1.5003	0.6610	11.2175
6.0600	2.0506	1.3872	5.9360
6.0700	0.7059	0.4570	10.9142
6.0800	0.6275	0.1585	11.4903
6.0900	2.8786	1.1539	7.8526
6.1000	-0.6197	0.1627	9.5084
6.1100	2.0644	-0.1172	8.5860
6.1200	0.7783	-1.4997	13.1389
6.1300	2.0662	0.0407	10.6235
6.1400	-1.9388	0.0485	11.1367
6.1500	-0.5665	0.0592	11.0955
6.1600	0.5408	0.4875	7.9794
6.1700	-0.6293	-0.4576	10.8735
6.1800	0.5061	1.9579	8.2923
6.1900	-3.0054	1.1491	8.4652
6.2000	0.0933	0.4241	10.5936
6.2100	1.3041	0.1053	9.6789
6.2200	-2.0046	-1.0971	11.0781
6.2300	0.5145	0.0102	5.6405
6.2400	-0.3823	-0.9099	12.3852
6.2500	1.7719	-0.1442	9.9026
6.2600	1.2287	-0.8465	8.0931
6.2700	-0.0108	-1.9460	9.2416
6.2800	2.6518	0.4636	5.8331
6.2900	-1.0379	-0.6820	10.5714
6.3000	1.1725	-0.4193	9.4205
6.3100	2.0638	0.5450	12.4283
6.3200	-1.3400	-0.5228	5.0446
6.3301	1.1450	2.2552	11.3545
6.3401	-0.7699	-0.5288	10.3076
6.3501	0.8776	0.3840	12.4725
6.3601	1.2754	0.5312	9.0873
6.3701	-2.0016	0.7466	14.5094
6.3801	0.8812	1.0839	8.1744
6.3901	-0.3009	0.3093	11.2636
6.4001	1.0020	0.4104	9.9044
6.4101	-0.6479	1.4500	7.3262
6.4201	-1.2891	-0.0401	11.7678
6.4301	1.2407	0.7615	11.5692
6.4401	-0.3523	-1.7856	11.9371
6.4501	2.9719	-0.3063	10.6809
6.4601	-2.1918	-0.2201	12.3750
6.4701	-0.1519	-0.9296	8.6345
6.4801	1.1940	1.7479	12.6041
6.4901	-2.0070	-0.5803	7.2048
6.5001	1.2748	2.1691	7.4309
6.5101	-1.8377	0.4391	5.8965
6.5201	-1.5870	0.6144	10.6145
6.5301	2.5591	1.3053	9.1034
6.5401	-0.9996	-0.4475	7.4620
6.5501	0.2776	1.0427	8.3509
6.5601	-1.8574	0.6299	7.7814
6.5701	-0.6867	0.6233	11.9820
6.5801	0.2363	0.2524	10.6480
6.5901	-0.0867	-1.8185	15.1489
6.6001	2.8756	-0.6891	8.1697
6.6101	-3.3314	0.0820	13.0175
6.6201	-0.1220	0.4798	7.4668
6.6301	-0.0335	1.1019	12.8225
6.6401	-2.4514	-1.5781	8.5166
6.6501	1.1091	1.4716	8.7750
6.6601	-3.0197	1.7366	11.7954
6.6701	-1.8760	1.2467	7.1413
6.6801	1.1569	0.8249	9.7710
6.6901	-2.4969	-0.8070	7.8568
6.7001	0.5958	1.7713	9.7483
6.7101	-2.6566	1.6576	12.5407
6.7201	-0.2052	0.0251	6.0155
6.7301	-0.0144	2.3994	10.7383
6.7401	0.9296	-3.2171	8.6536
6.7501	2.2702	1.2108	10.4159
6.7601	0.3583	-1.2395	12.3696
6.7701	0.7023	-0.1819	6.1088
6.7801	1.3035	2.7751	9.6299
6.7901	-1.2000	0.4169	6.8004
6.8001	1.3382	-0.5097	4.7138
6.8101	0.3410	-0.6766	7.0462
6.8201	-1.4626	-0.8865	12.1214
6.8301	1.7342	0.7196	2.3958
6.8401	-1.1898	-0.8124	5.9737
6.8501	-0.6825	-0.6018	10.2903
6.8601	1.2867	-0.7639	8.5657
6.8701	-2.2217	-1.4566	14.2061
6.8801	1.3460	2.8522	7.3986
6.8901	-0.6425	-0.3619	6.7250
6.9001	-0.5527	1.0002	7.3286
6.9101	1.1438	-0.8225	13.9052
6.9201	-0.4050	-2.3850	12.9008
6.9301	1.3017	1.3866	3.7776
6.9401	-2.1469	1.0726	13.8711
6.9501	-0.8046	0.9517	11.8295
6.9601	-0.5647	2.2074	6.4570
6.9701	-2.4694	-3.3978	10.3274
6.9801	1.5015	1.2419	12.2643
6.9901	-1.6594	-1.7276	10.9908
7.0001	-1.5236	0.9332	8.2127
7.0101	0.5462	3.3230	12.1004
7.0201	-2.8690	-0.2955	17.9515
7.0301	2.7918	-1.1749	5.4879
7.0401	0.5276	-0.5707	10.2155
7.0501	-0.5258	0.2028	13.3160
7.0601	2.8935	3.3697	11.3539
7.0701	-0.4869	-3.4283	4.7222
7.0801	0.6185	0.1131	6.4397
7.0901	0.6981	-0.9643	9.6221
7.1001	-1.3974	-2.8331	10.0719
7.1101	-0.2740	0.3757	8.6410
7.1201	-1.9035	-1.5685	14.5620
7.1301	1.1497	1.1031	15.7531
7.1401	1.4650	2.1631	8.9401
7.1501	0.0826	-2.6058	2.9850
7.1601	1.1055	-3.2524	10.1952
7.1701	-0.5354	-0.7376	8.8923
7.1801	-0.7448	0.6987	12.3529
7.1901	0.1777	2.8678	10.2903
7.2001	-1.2006	0.2142	5.6680
7.2101	1.8526	4.0307	6.6131
7.2201	-0.5384	-0.6598	13.7377
7.2301	-3.4433	-0.8806	19.0480
7.2401	1.4728	1.9095	17.2504
7.2501	-1.9047	0.9589	3.7537
7.2601	-1.7258	-1.4614	6.4073
7.2701	3.0640	3.2608	2.1093
7.2801	-1.3418	3.4032	11.8235
7.2901	-0.6221	3.8620	11.7696
7.3001	1.0839	4.9854	9.3966
7.3101	-5.0632	-4.6020	15.3283
7.3201	0.9350	0.3805	11.1523
7.3301	2.3755	-2.2977	4.6773
7.3401	2.0016	-0.4074	4.0935
7.3501	1.8849	3.2171	2.6405
7.3601	-0.9147	-1.5661	6.0688
7.3701	-0.5665	3.6108	13.2538
7.3801	-0.8381	-0.1890	11.9036
7.3901	-2.2361	-3.0754	19.0216
7.4001	1.8287	0.9302	15.1943
7.4101	-2.0925	0.2530	9.6729
7.4201	-0.0562	0.4475	6.8889
7.4301	0.0347	2.4532	5.3491
7.4401	-2.7751	0.1238	0.5300
7.4501	1.0798	-1.8909	7.8137
7.4601	0.5306	0.9499	13.2221
7.4701	-3.8165	-3.4935	13.4608
7.4801	1.8700	0.4977	15.3600
7.4901	0.1615	0.8459	9.2273
7.5001	0.7998	5.9533	15.0047
7.5101	1.8550	4.3663	14.8534
7.5201	-1.9830	-2.0662	11.4687
7.5301	0.5204	-1.4207	4.0391
7.5401	-0.4516	-3.1741	8.3557
7.5501	-0.4086	-5.3276	5.1661
7.5601	3.2967	2.0997	6.0299
7.5701	-0.0431	-3.4564	11.2701
7.5801	1.4488	2.3109	6.3697
7.5901	4.1258	3.2626	10.8466
7.6001	-1.8419	2.3479	12.3738
7.6101	1.4399	2.2756	14.2546
7.6201	2.0381	4.2807	9.3559
7.6301	-4.8137	-2.5603	12.0532
7.6401	-0.5617	-1.8592	-1.5978
7.6501	-1.2951	-2.1978	7.9938
7.6601	-0.6024	-3.8895	7.9298
7.6701	1.3495	2.7541	6.0885
7.6801	-0.9129	3.5061	11.9312
7.6901	0.7968	3.8165	8.0829
7.7001	0.7262	1.9471	3.6329
7.7101	-0.2411	-0.4295	4.8688
7.7201	-0.2447	-2.4825	5.1613
7.7301	-0.8219	-4.1820	10.2927
7.7401	-0.8261	-1.3304	7.2053
7.7501	2.6279	0.8925	15.3648
7.7601	1.7007	0.6718	10.2496
7.7701	1.9448	5.2654	12.8901
7.7801	3.5964	3.9876	10.6600
7.7901	-1.3023	1.2963	11.1654
7.8001	4.5972	3.1418	-0.3218
7.8101	0.1633	2.0656	7.4943
7.8201	-4.1832	-4.4805	6.9469
7.8301	3.4307	-2.4550	7.5529
7.8401	-3.1382	-2.3055	3.7190
7.8501	-1.4656	-3.6371	3.9021
7.8601	4.4183	4.7826	4.5679
7.8701	-2.3473	2.9635	9.2997
7.8801	0.8177	3.7226	10.1575
7.8901	0.6658	3.7459	5.8917
7.9001	-3.3356	-5.4490	5.3467
7.9101	-0.3978	-3.4379	5.3240
7.9201	-0.3302	-3.4331	12.0532
7.9301	0.3093	-4.9567	10.0977
7.9401	4.1061	5.9156	6.7866
7.9501	0.9440	2.5394	10.0558
7.9601	1.5009	3.8877	8.9611
7.9701	1.9824	2.9826	8.1056
7.9801	-0.7155	3.1597	9.4797
7.9901	0.8668	-3.2722	7.8909
8.0001	-2.7308	-2.1003	10.3447
8.0101	-4.5236	-4.7372	9.6502
8.0201	0.3799	-2.3061	8.6925
8.0301	-0.5007	2.4413	6.8745
8.0401	2.8738	2.2145	4.4841
8.0501	1.9956	4.5242	4.6983
8.0601	-1.2173	3.1854	11.1391
8.0701	0.6144	2.5334	5.4891
8.0801	-1.2861	0.1723	7.9411
8.0901	-2.3462	-2.4951	3.2135
8.1001	-0.3823	-3.5288	7.0564
8.1101	-0.3996	-1.8550	8.5106
8.1201	-1.8969	-6.0257	5.3497
8.1301	2.3647	-1.3974	5.5920
8.1401	-0.7095	-3.2937	8.7720
8.1501	-0.0048	-3.9332	7.0032
8.1601	3.8171	2.9162	8.6171
8.1701	0.7442	3.0161	9.6544
8.1801	2.1990	3.1962	12.5078
8.1901	3.6999	6.0879	11.3449
8.2001	-5.5220	0.6873	10.5433
8.2101	-2.3641	0.3559	11.2779
8.2201	-2.8044	-1.7204	11.8360
8.2301	-4.8616	-2.1105	15.0095
8.2401	0.2991	0.8267	9.1710
8.2501	-1.2311	-2.1063	10.9525
8.2601	1.0732	-1.6792	3.3111
8.2701	4.2915	-0.8088	6.0036
8.2801	0.6556	0.4798	9.1836
8.2901	0.9278	2.8696	5.7661
8.3001	5.0674	3.6562	12.0496
8.3101	-0.1950	2.0674	13.1509
8.3201	1.0708	2.1727	16.7862
8.3301	-0.5162	0.1944	10.6211
8.3401	-0.5653	1.3902	11.8396
8.3501	-1.0355	-1.3723	3.5264
8.3601	-2.5663	1.1605	4.3531
8.3701	-1.1593	-6.1376	5.1421
8.3801	0.4995	-0.9685	10.2376
8.3901	-3.0867	-2.4736	10.6073
8.4001	-1.2467	-1.2849	13.9285
8.4101	3.2542	6.2518	14.1206
8.4201	0.4768	3.5635	11.9347
8.4301	1.3854	3.2082	9.0281
8.4401	3.7226	6.2739	6.5928
8.4501	-4.9453	2.0189	9.7507
8.4601	0.9691	-0.2297	5.5100
8.4701	-2.8815	-0.7507	8.5914
8.4801	-3.7041	-1.5146	9.3924
8.4901	0.9846	-0.5252	13.6952
8.5001	-0.9882	-3.6413	9.3427
8.5101	-3.0090	-5.3587	7.7419
8.5201	1.0546	-4.2867	5.2738
8.5301	-0.1926	-3.1148	17.2587
8.5401	2.0435	-0.8285	9.1184
8.5501	2.9892	4.3567	15.1878
8.5601	0.8195	3.3182	10.3328
8.5701	0.6736	0.9308	13.2741
8.5801	1.8371	2.4269	7.7904
8.5901	-0.6066	2.0662	9.0801
8.6001	-0.5282	0.0592	7.2957
8.6101	1.3938	4.3944	13.0546
8.6201	-3.4845	0.9051	8.5639
8.6301	-0.2638	3.6993	11.1170
8.6401	-3.5683	1.3322	4.3130
8.6501	-2.9019	-0.7501	7.2634
8.6601	1.0714	1.1503	6.6359
8.6701	-1.8903	-3.7872	14.2133
8.6801	-3.1609	-4.9555	9.2877
8.6901	1.4883	-1.4991	7.5912
8.7001	1.9310	-4.2347	5.9216
8.7101	2.7009	0.3206	8.9234
8.7201	5.3366	1.1701	13.6952
8.7301	1.2784	-0.9864	8.2755
8.7401	1.7904	2.2163	10.3746
8.7501	4.5027	3.9296	7.5954
8.7601	-1.6379	0.3565	13.2693
8.7701	1.7294	4.8119	14.2570
8.7801	-0.0861	4.5715	12.2811
8.7901	-3.0784	3.2752	9.5467
8.8001	1.1222	1.8778	3.5695
8.8101	0.5402	5.2217	5.1601
8.8201	-1.0415	2.4287	9.1357
8.8301	-0.9248	1.8544	15.0424
8.8401	0.5557	1.1133	8.0069
8.8501	-3.2464	-4.9100	10.3890
8.8601	-0.0604	-2.6560	5.9126
8.8701	-1.0259	-2.0488	10.6049
8.8801	-1.4213	-3.4415	13.0911
8.8901	1.2096	-1.6457	7.5517
8.9001	1.5446	-4.2221	7.8927
8.9101	-1.0187	-3.9643	8.9090
8.9201	3.3822	4.4423	13.2974
8.9301	1.0409	-0.1310	10.1216
8.9401	3.2740	1.7408	5.3073
8.9501	2.1703	1.8490	10.9561
8.9601	-1.2144	3.7178	12.9331
8.9701	-0.2429	5.0201	12.1100
8.9801	2.8193	4.8173	6.7980
8.9901	-3.3003	2.5495	14.1930
9.0001	0.5677	5.0411	17.0518
9.0101	-2.0309	-0.2076	8.3479
9.0201	-3.0114	0.1340	12.3756
9.0301	0.4110	-0.3894	8.2103
9.0401	1.7808	4.0594	13.7192
9.0501	-4.0020	-3.8841	8.5130
9.0601	0.2818	-1.7156	5.7655
9.0701	-0.6772	-2.3138	13.9716
9.0801	-3.8327	-2.2145	9.3421
9.0901	2.4843	-3.2243	3.5838
9.1001	0.6431	-0.9176	9.2727
9.1101	-2.1404	-5.2044	10.8101
9.1201	0.2441	-1.9190	7.4153
9.1301	-2.3677	-2.9402	6.4821
9.1401	-1.4363	-2.5178	11.9252
9.1501	1.4291	-2.1703	8.5226
9.1601	-0.7555	-2.5980	5.9599
9.1701	-1.7306	-1.8945	11.6476
9.1801	1.9178	2.2726	10.5643
9.1901	-1.6714	0.8907	8.5902
9.2001	-1.8000	-2.3946	6.3021
9.2101	1.6684	0.5587	12.9864
9.2201	-0.4528	1.1988	11.0099
9.2301	1.8622	0.2818	10.0253
9.2401	3.4648	1.5547	13.0923
9.2501	1.8718	0.9416	11.0787
9.2601	0.2399	1.4249	10.8622
9.2701	3.3218	3.5695	14.5507
9.2801	1.8472	1.7785	11.9856
9.2901	1.4770	0.9332	9.6101
9.3001	0.9667	4.8460	13.2149
9.3101	0.2602	0.0694	9.4223
9.3201	2.5148	3.6155	9.7118
9.3301	1.5912	2.6243	13.1120
9.3401	-1.2622	0.9571	11.7337
9.3501	0.2010	4.2107	11.3838
9.3601	1.6851	4.7970	9.0209
9.3701	-0.9093	3.9804	14.3796
9.3801	1.8730	0.6975	10.3417
9.3901	0.9817	2.9079	5.8833
9.4001	0.8800	1.7414	13.0486
9.4101	1.2580	3.9338	13.9112
9.4201	3.7806	2.4395	8.4227
9.4301	0.2070	-1.1725	11.5262
9.4401	0.0586	-0.4965	11.4945
9.4501	4.2209	2.9701	5.6883
9.4601	-0.9793	0.0191	10.0307
9.4701	0.6323	-0.3212	3.6825
9.4801	-0.2967	0.6179	13.5152
9.4901	0.2692	1.6457	5.2624
9.5001	0.8381	2.1117	7.2777
9.5101	-0.6724	5.1697	12.8811
9.5201	-1.6977	-0.4445	11.1607
9.5301	-2.7571	-1.0612	13.3351
9.5401	0.6688	3.2829	9.6771
9.5501	-2.0393	0.1286	10.7742
9.5601	-1.3729	0.0455	7.0905
9.5701	-1.1647	-1.6690	7.3441
9.5801	-1.1713	-0.6945	8.6524
9.5901	0.0353	0.9619	4.6767
9.6001	-1.3083	-0.2243	17.7541
9.6101	-2.2648	-1.6965	6.9152
9.6201	0.0909	-1.1904	11.9234
9.6301	0.9386	1.7432	7.1766
9.6401	-0.6496	-1.5326	9.5300
9.6501	1.8126	1.5727	9.4462
9.6601	2.8732	4.3914	11.1577
9.6701	0.4869	0.8572	5.4909
9.6801	1.7850	3.4893	10.5421
9.6901	-0.5342	4.5045	10.7216
9.7001	-1.1294	1.7605	10.0247
9.7101	1.7635	2.2074	9.3978
9.7201	2.9767	2.9862	14.6972
9.7301	-1.1037	-0.7376	5.9988
9.7401	1.4590	2.2792	12.5204
9.7501	2.4191	2.9599	9.3206
9.7601	0.6903	1.2933	13.5684
9.7701	1.5416	1.1342	7.5529
9.7801	3.4594	1.2658	13.1264
9.7901	2.2187	0.9051	10.5439
9.8001	0.6514	-0.0215	7.8640
9.8101	2.4341	-0.6251	4.7976
9.8201	-0.0425	0.5145	12.2871
9.8301	-4.0127	-2.7541	8.2414
9.8401	0.4313	-1.1725	10.5822
9.8501	-1.4596	-0.3350	5.5950
9.8601	-0.7388	-0.3135	7.9782
9.8701	0.5276	-1.6457	8.8935
9.8801	-1.6151	-0.8351	10.5254
9.8901	-3.3565	-1.8885	12.9648
9.9001	0.5946	-1.3328	3.3733
9.9101	-2.3497	-2.1816	12.2147
9.9201	-0.8177	-1.5649	11.3449
9.9301	-0.8040	-0.0090	12.3260
9.9401	-1.2616	-2.1924	7.4123
9.9501	-2.3773	-2.0201	9.8590
9.9601	0.9236	0.2016	8.2845
9.9701	1.2144	1.0199	10.5816
9.9801	-2.9934	-3.9469	10.5529
9.9901	-1.0098	-2.2205	4.7408
10.0001	-0.1896	-0.1424	13.0432
10.0101	1.5302	0.2417	6.8099
10.0201	0.0407	2.9743	12.0490
10.0301	-1.3274	0.7041	9.9864
10.0401	-0.5103	0.6437	7.4530
10.0501	-0.1059	1.8634	11.4071
10.0601	2.0016	1.6062	6.9146
10.0701	-0.8010	-0.2943	8.6440
10.0801	0.8159	1.5595	11.0315
10.0901	1.7779	2.3796	9.4833
10.1001	-0.5288	0.1513	13.4584
10.1101	1.6474	1.9531	5.1451
10.1201	2.0447	1.7186	11.3862
10.1301	-0.7095	0.5103	11.9886
10.1401	1.0851	-3.1645	6.4510
10.1501	1.8981	-1.2269	9.0520
10.1601	-0.5874	-0.5677	9.3236
10.1701	-3.9075	-2.0596	8.5352
10.1801	-1.9310	-1.7629	14.1595
10.1901	-0.0909	0.2022	8.4933
10.2001	-1.7396	-1.3866	7.9387
10.2101	-2.7709	2.5753	13.8550
10.2201	-0.1472	0.3990	9.1471
10.2301	-1.6151	0.3529	8.2935
10.2401	-0.2243	1.0116	11.2073
10.2501	-0.6419	0.0497	8.0632
10.2601	0.3248	0.8590	8.9120
10.2701	0.8614	2.0979	11.6518
10.2801	3.1184	1.0546	8.6632
10.2901	-0.3284	-0.5928	6.5336
10.3001	1.5894	-0.3452	8.2097
10.3101	3.6293	0.1687	5.9509
10.3201	-0.4648	-0.1334	13.1694
10.3301	-3.5246	-1.9573	10.4219
10.3401	0.9864	-2.4897	6.2321
10.3501	0.3882	1.0373	9.3571
10.3601	-2.2468	0.3398	15.4091
10.3701	-0.7962	-0.3619	9.1178
10.3801	0.5450	1.1109	6.1405
10.3901	-0.7639	0.6520	8.1828
10.4001	0.3834	1.9812	12.8243
10.4101	0.2931	0.3505	12.4588
10.4201	0.7418	1.3107	7.2831
10.4301	2.7787	2.1840	10.5050
10.4401	2.3940	-0.0933	11.4203
10.4501	0.5378	1.1922	9.1465
10.4601	-0.9404	-0.8506	8.1744
10.4701	0.6837	0.1591	11.6141
10.4801	0.0060	0.3147	9.2165
10.4901	-2.4227	-1.4315	11.1595
10.5001	0.7286	-0.9882	5.4036
10.5101	1.1246	0.6909	11.7559
10.5201	-1.2371	-0.1358	13.3932
10.5301	1.6696	1.3436	8.2893
10.5401	0.4451	0.8937	10.3896
10.5501	0.5785	0.0233	7.1826
10.5601	1.1946	1.0875	11.3312
10.5701	3.4648	0.4582	7.3358
10.5801	1.2652	0.1490	4.5481
10.5901	2.0967	2.1302	6.2482
10.6001	0.4953	0.3565	12.2781
10.6101	-0.3894	0.9565	8.0985
10.6201	-1.1527	0.0401	8.2181
10.6301	-1.0732	0.2668	5.8594
10.6401	-1.1198	0.6526	10.5475
10.6501	-3.3236	0.5785	14.3658
10.6601	-0.0598	1.3148	8.2851
10.6701	2.3473	3.4516	11.8043
10.6801	-0.3123	0.6485	13.2478
10.6901	-1.0421	-0.0826	9.1740
10.7001	4.1677	0.8572	9.8685
10.7101	1.4764	0.7083	9.4468
10.7201	-1.1139	-1.7563	7.5589
10.7301	0.5773	-0.9565	12.0693
10.7402	1.1192	-0.7292	12.9361
10.7502	-2.9037	-0.5330	11.2229
10.7602	-1.3783	-1.0241	9.2751
10.7702	-0.3906	-0.2824	9.7274
10.7802	0.8596	0.9697	4.3083
10.7902	-1.3041	0.4875	11.2007
10.8002	1.3807	2.7404	13.8089
10.8102	0.2387	2.4395	12.5694
10.8202	0.9505	0.5743	11.1002
10.8302	0.3828	-1.2855	5.1410
10.8402	-0.7310	-0.6903	9.9098
10.8502	-0.0951	-1.2138	5.8959
10.8602	-0.4110	1.5972	10.6175
10.8702	2.6662	1.2437	15.2751
10.8802	0.1836	0.2656	11.3012
10.8902	0.0162	-1.2293	10.3680
10.9002	2.7158	-0.4086	6.9661
10.9102	0.1747	-1.2078	9.8021
10.9202	-0.5713	-1.2144	5.0500
10.9302	1.2030	-1.0337	10.5876
10.9402	-0.5503	-0.4271	14.0751
10.9502	-1.1671	0.0042	12.6986
