time	accelx	accely	accelz
0.0000	0.6784	0.2477	9.6143
0.0050	0.6951	0.2680	9.6215
0.0100	0.6897	0.2548	9.6406
0.0150	0.6772	0.2483	9.6370
0.0200	0.6766	0.2435	9.5934
0.0250	0.6526	0.2477	9.6095
0.0300	0.6610	0.2518	9.6412
0.0350	0.6957	0.2381	9.6203
0.0400	0.6891	0.2518	9.6203
0.0450	0.6831	0.2686	9.6317
0.0500	0.6718	0.2423	9.6000
0.0550	0.6891	0.2465	9.6006
0.0600	0.7029	0.2614	9.6131
0.0650	0.6861	0.2572	9.6424
0.0700	0.6628	0.2441	9.6466
0.0750	0.6784	0.2506	9.6364
0.0800	0.6921	0.2626	9.6442
0.0850	0.6820	0.2668	9.6574
0.0900	0.6873	0.2560	9.6191
0.0950	0.6831	0.2249	9.6622
0.1000	0.6945	0.2506	9.6263
0.1050	0.6784	0.2698	9.6125
0.1100	0.6927	0.2602	9.6311
0.1150	0.6730	0.2435	9.6352
0.1200	0.7053	0.2351	9.6831
0.1250	0.6820	0.2333	9.6538
0.1300	0.6963	0.2477	9.6251
0.1350	0.6694	0.2650	9.6029
0.1400	0.6772	0.2518	9.6275
0.1450	0.6867	0.2602	9.6771
0.1500	0.7029	0.2614	9.6227
0.1550	0.6855	0.2608	9.6424
0.1600	0.6514	0.2489	9.6275
0.1650	0.6772	0.2662	9.6257
0.1700	0.6622	0.2393	9.6454
0.1750	0.6712	0.2429	9.6335
0.1800	0.6778	0.2554	9.6364
0.1850	0.6419	0.2662	9.5760
0.1900	0.7017	0.2572	9.6131
0.1950	0.6646	0.2584	9.6299
0.2000	0.6718	0.2351	9.6634
0.2050	0.6754	0.2441	9.7746
0.2100	0.6814	0.2584	9.5724
0.2150	0.6879	0.2459	9.6520
0.2200	0.6784	0.2644	9.6179
0.2250	0.6598	0.2572	9.5928
0.2300	0.6676	0.2524	9.7848
0.2350	0.6921	0.2249	9.6747
0.2400	0.6718	0.2536	9.6574
0.2450	0.6987	0.2722	9.6287
0.2500	0.6634	0.2530	9.6006
0.2550	0.6754	0.2423	9.5994
0.2600	0.6538	0.2327	9.6293
0.2650	0.6688	0.2459	9.6149
0.2700	0.6921	0.2632	9.6466
0.2750	0.6688	0.2632	9.6442
0.2800	0.6784	0.2417	9.6370
0.2850	0.7089	0.2710	9.6622
0.2900	0.6933	0.2339	9.6352
0.2950	0.6969	0.2548	9.6574
0.3000	0.6670	0.2590	9.6472
0.3050	0.6586	0.2668	9.6167
0.3100	0.6514	0.2471	9.6071
0.3150	0.7202	0.2572	9.6622
0.3200	0.6766	0.2512	9.6239
0.3250	0.6706	0.2746	9.6107
0.3300	0.6766	0.2656	9.6711
0.3350	0.6730	0.2393	9.6293
0.3400	0.6879	0.2620	9.6323
0.3450	0.6610	0.2674	9.6287
0.3500	0.6556	0.2477	9.5790
0.3550	0.6778	0.2566	9.6460
0.3600	0.6658	0.2393	9.6514
0.3650	0.6831	0.2644	9.6113
0.3700	0.6700	0.2369	9.6640
0.3750	0.6945	0.2471	9.6335
0.3800	0.6837	0.2536	9.5802
0.3850	0.6891	0.2608	9.6388
0.3900	0.6933	0.2518	9.6143
0.3950	0.6891	0.2818	9.6717
0.4000	0.6790	0.2381	9.6317
0.4050	0.6508	0.2668	9.6083
0.4100	0.6831	0.2548	9.7902
0.4150	0.7005	0.2441	9.6376
0.4200	0.7065	0.2459	9.6526
0.4250	0.6784	0.2249	9.6137
0.4300	0.6981	0.2566	9.6197
0.4350	0.6987	0.2453	9.6137
0.4400	0.6604	0.2578	9.6065
0.4450	0.7011	0.2746	9.6436
0.4500	0.6706	0.2644	9.6311
0.4550	0.6951	0.2662	9.6370
0.4600	0.7011	0.2518	9.6442
0.4650	0.6933	0.2686	9.6101
0.4700	0.6927	0.2477	9.6041
0.4750	0.6825	0.2632	9.6215
0.4800	0.7035	0.2435	9.6586
0.4850	0.6999	0.2572	9.6095
0.4900	0.7017	0.2734	9.6430
0.4950	0.6640	0.2453	9.6191
0.5000	0.6951	0.2590	9.6221
0.5050	0.6742	0.2734	9.6329
0.5100	0.6825	0.2638	9.6119
0.5150	0.6724	0.2722	9.6263
0.5200	0.6885	0.2584	9.6012
0.5250	0.6700	0.2554	9.6532
0.5300	0.6742	0.2423	9.6382
0.5350	0.6706	0.2459	9.6029
0.5400	0.6849	0.2722	9.6346
0.5450	0.6855	0.2764	9.6490
0.5500	0.6598	0.2453	9.5850
0.5550	0.6987	0.2680	9.6029
0.5600	0.6658	0.2572	9.6215
0.5650	0.6742	0.2548	9.6311
0.5700	0.7053	0.2680	9.6364
0.5750	0.6909	0.2518	9.6137
0.5800	0.6796	0.2554	9.6203
0.5850	0.6718	0.2632	9.6245
0.5900	0.6790	0.2447	9.7501
0.5950	0.6670	0.2722	9.5545
0.6000	0.6616	0.2716	9.6179
0.6050	0.6837	0.2650	9.6239
0.6100	0.6981	0.2536	9.6113
0.6150	0.6562	0.2650	9.7728
0.6200	0.7166	0.2764	9.6430
0.6250	0.6766	0.2620	9.6341
0.6300	0.6544	0.2638	9.6065
0.6350	0.7166	0.2572	9.6903
0.6400	0.6676	0.2483	9.6233
0.6450	0.6778	0.2596	9.6233
0.6500	0.6921	0.2566	9.6358
0.6550	0.6909	0.2590	9.6149
0.6600	0.6885	0.2369	9.6843
0.6650	0.6903	0.2291	9.6388
0.6700	0.6754	0.2608	9.6341
0.6750	0.6915	0.2405	9.6705
0.6800	0.6676	0.2686	9.6203
0.6850	0.6652	0.2841	9.5886
0.6900	0.6682	0.2656	9.6484
0.6950	0.6903	0.2578	9.6119
0.7000	0.6568	0.2668	9.6059
0.7050	0.6975	0.2483	9.6382
0.7100	0.6772	0.2584	9.5952
0.7150	0.6790	0.2315	9.6305
0.7200	0.7011	0.2788	9.6215
0.7250	0.7053	0.2650	9.6580
0.7300	0.6993	0.2596	9.6352
0.7350	0.6843	0.2465	9.6263
0.7400	0.6730	0.2447	9.6131
0.7450	0.7029	0.2548	9.6317
0.7500	0.6514	0.2524	9.6514
0.7550	0.6855	0.2614	9.6167
0.7600	0.6598	0.2650	9.6245
0.7650	0.7160	0.2524	9.6113
0.7700	0.6574	0.2542	9.6436
0.7750	0.6915	0.2746	9.6562
0.7800	0.6915	0.2512	9.6281
0.7850	0.6586	0.2363	9.6460
0.7900	0.6712	0.2584	9.6352
0.7950	0.6712	0.2530	9.6382
0.8000	0.6712	0.2435	9.6215
0.8050	0.6706	0.2758	9.6233
0.8100	0.6682	0.2423	9.6257
0.8150	0.6616	0.2841	9.6263
0.8200	0.6825	0.2518	9.6430
0.8250	0.6562	0.2554	9.6203
0.8300	0.6742	0.2626	9.6215
0.8350	0.6837	0.2459	9.6281
0.8400	0.6622	0.2788	9.5994
0.8450	0.6778	0.2477	9.6299
0.8500	0.6754	0.2548	9.6143
0.8550	0.6814	0.2680	9.6586
0.8600	0.6933	0.2387	9.6209
0.8650	0.6502	0.2417	9.5910
0.8700	0.7011	0.2650	9.5976
0.8750	0.7047	0.2536	9.6311
0.8800	0.6467	0.2584	9.6789
0.8850	0.6802	0.2369	9.7603
0.8900	0.6820	0.2512	9.6137
0.8950	0.6796	0.2680	9.5940
0.9000	0.6778	0.2686	9.6329
0.9050	0.6562	0.2638	9.6430
0.9100	0.6867	0.2722	9.6305
0.9150	0.6802	0.2447	9.6311
0.9200	0.6760	0.2542	9.6089
0.9250	0.6431	0.2417	9.6502
0.9300	0.6736	0.2536	9.6047
0.9350	0.6837	0.2483	9.6125
0.9400	0.6825	0.2495	9.6652
0.9450	0.6831	0.2812	9.6173
0.9500	0.6945	0.2614	9.6209
0.9550	0.6742	0.2656	9.6927
0.9600	0.6742	0.2614	9.6478
0.9650	0.6831	0.2447	9.6346
0.9700	0.6855	0.2512	9.6269
0.9750	0.6640	0.2495	9.6089
0.9800	0.6514	0.2477	9.6083
0.9850	0.6670	0.2662	9.6352
0.9900	0.6778	0.2608	9.6430
0.9950	0.6640	0.2459	9.5958
1.0000	0.6784	0.2608	9.7669
1.0050	0.6742	0.2794	9.6269
1.0100	0.6843	0.2411	9.6741
1.0150	0.6760	0.2542	9.6484
1.0200	0.6742	0.2877	9.5653
1.0250	0.6706	0.2483	9.5084
1.0300	0.6814	0.2578	9.6759
1.0350	0.6945	0.2883	9.6448
1.0400	0.7208	0.2375	9.6400
1.0450	0.7023	0.2668	9.6418
1.0500	0.6694	0.2602	9.6059
1.0550	0.6831	0.2345	9.6388
1.0600	0.6915	0.2548	9.6263
1.0650	0.6580	0.2644	9.6466
1.0700	0.6867	0.2530	9.6568
1.0750	0.6664	0.2698	9.5976
1.0800	0.6407	0.2602	9.6358
1.0850	0.6652	0.2512	9.6173
1.0900	0.6867	0.2548	9.5994
1.0950	0.6831	0.2375	9.6526
1.1000	0.6999	0.2453	9.6496
1.1050	0.6742	0.2447	9.6323
1.1100	0.6849	0.2668	9.5976
1.1150	0.6700	0.2698	9.7788
1.1200	0.6957	0.2524	9.6000
1.1250	0.6975	0.2704	9.6484
1.1300	0.7035	0.2620	9.6197
1.1350	0.6694	0.2483	9.6215
1.1400	0.6915	0.2698	9.6502
1.1450	0.7041	0.2506	9.6311
1.1500	0.6987	0.2321	9.6203
1.1550	0.6903	0.2542	9.6436
1.1600	0.6897	0.2620	9.6155
1.1650	0.6550	0.2698	9.6173
1.1700	0.7077	0.2524	9.6179
1.1750	0.6885	0.2692	9.6454
1.1800	0.6646	0.2674	9.6323
1.1850	0.6520	0.2704	9.6257
1.1900	0.6861	0.2518	9.6388
1.1950	0.6694	0.2333	9.6388
1.2000	0.6736	0.2429	9.6747
1.2050	0.6700	0.2548	9.6364
1.2100	0.6431	0.2662	9.6245
1.2150	0.6490	0.2626	9.6299
1.2200	0.7083	0.2650	9.5970
1.2250	0.6879	0.2465	9.6341
1.2300	0.6676	0.2590	9.6382
1.2350	0.6688	0.2500	9.6496
1.2400	0.6861	0.2590	9.6053
1.2450	0.6939	0.2483	9.6113
1.2500	0.6766	0.2686	9.6394
1.2550	0.6652	0.2638	9.6550
1.2600	0.6891	0.2722	9.6586
1.2650	0.7005	0.2632	9.6705
1.2700	0.6849	0.2590	9.6245
1.2750	0.7149	0.2716	9.6628
1.2800	0.6778	0.2506	9.5922
1.2850	0.6718	0.2477	9.6185
1.2900	0.6784	0.2722	9.6155
1.2950	0.6784	0.2674	9.6203
1.3000	0.7011	0.2608	9.6664
1.3050	0.6748	0.2363	9.6269
1.3100	0.6909	0.2734	9.6622
1.3150	0.6562	0.2590	9.5778
1.3200	0.6676	0.2608	9.6095
1.3250	0.6861	0.2770	9.6442
1.3300	0.7029	0.2554	9.6089
1.3350	0.6574	0.2692	9.6203
1.3400	0.6814	0.2740	9.6514
1.3450	0.6867	0.2483	9.6448
1.3500	0.6837	0.2477	9.6269
1.3550	0.6682	0.2626	9.6364
1.3600	0.6718	0.2399	9.6287
1.3650	0.6945	0.2471	9.6550
1.3700	0.6849	0.2518	9.6203
1.3750	0.6808	0.2716	9.6059
1.3800	0.6802	0.2435	9.6293
1.3850	0.6867	0.2662	9.6047
1.3900	0.6820	0.2584	9.6903
1.3950	0.6778	0.2614	9.6436
1.4000	0.6490	0.2518	9.6376
1.4050	0.6646	0.2704	9.5748
1.4100	0.6879	0.2423	9.6161
1.4150	0.6802	0.2441	9.6628
1.4200	0.6939	0.2584	9.6550
1.4250	0.6951	0.2465	9.6323
1.4300	0.6532	0.2800	9.6137
1.4350	0.7155	0.2489	9.6400
1.4400	0.6682	0.2536	9.6388
1.4450	0.6664	0.2530	9.6000
1.4500	0.6401	0.2447	9.6580
1.4550	0.6604	0.2668	9.6436
1.4600	0.6796	0.2602	9.5958
1.4650	0.6814	0.2536	9.6035
1.4700	0.7011	0.2656	9.6221
1.4750	0.6867	0.2471	9.6263
1.4800	0.6730	0.2495	9.6484
1.4850	0.6694	0.2602	9.6544
1.4900	0.7005	0.2369	9.6083
1.4950	0.6634	0.2363	9.6538
1.5000	0.6873	0.2596	9.6263
1.5050	0.6843	0.2596	9.6161
1.5100	0.6831	0.2698	9.6035
1.5150	0.7059	0.2524	9.6293
1.5200	0.6861	0.2518	9.6382
1.5250	0.6945	0.2572	9.6185
1.5300	0.6939	0.2776	9.6616
1.5350	0.6730	0.2620	9.6460
1.5400	0.6640	0.2471	9.6406
1.5450	0.6718	0.2656	9.5545
1.5500	0.6634	0.2554	9.6526
1.5550	0.7107	0.2674	9.6430
1.5600	0.6837	0.2548	9.6023
1.5650	0.6909	0.2423	9.5144
1.5700	0.6814	0.2381	9.5814
1.5750	0.6796	0.2435	9.5802
1.5800	0.6568	0.2800	9.6012
1.5850	0.6736	0.2608	9.6179
1.5900	0.6730	0.2554	9.6215
1.5950	0.6933	0.2554	9.6293
1.6000	0.6808	0.2495	9.6634
1.6050	0.6837	0.2471	9.6400
1.6100	0.6945	0.2668	9.6305
1.6150	0.6814	0.2674	9.5946
1.6200	0.6843	0.2752	9.6083
1.6250	0.6646	0.2650	9.6502
1.6300	0.6748	0.2512	9.6346
1.6350	0.6820	0.2560	9.6526
1.6400	0.6849	0.2465	9.5682
1.6450	0.7095	0.2704	9.6089
1.6500	0.6754	0.2524	9.6329
1.6550	0.6682	0.2489	9.6161
1.6600	0.6808	0.2453	9.6352
1.6650	0.6772	0.2518	9.6646
1.6700	0.6814	0.2548	9.6101
1.6750	0.6479	0.2518	9.5934
1.6800	0.6915	0.2453	9.6376
1.6850	0.6837	0.2680	9.6341
1.6900	0.6831	0.2506	9.6628
1.6950	0.6688	0.2704	9.6550
1.7000	0.6814	0.2524	9.5970
1.7050	0.6766	0.2548	9.6299
1.7100	0.6730	0.2620	9.6275
1.7150	0.6897	0.2614	9.5706
1.7200	0.6825	0.2674	9.6209
1.7250	0.6987	0.2674	9.6640
1.7300	0.6837	0.2770	9.5910
1.7350	0.6694	0.2572	9.6113
1.7400	0.6867	0.2489	9.6747
1.7450	0.6562	0.2315	9.6209
1.7500	0.7220	0.2483	9.6394
1.7550	0.6760	0.2536	9.6335
1.7600	0.6820	0.2453	9.6454
1.7650	0.6706	0.2608	9.6287
1.7700	0.6825	0.2620	9.7525
1.7750	0.6963	0.2656	9.6616
1.7800	0.7011	0.2602	9.6478
1.7850	0.6670	0.2471	9.6281
1.7900	0.6670	0.2500	9.6436
1.7950	0.6987	0.2417	9.6370
1.8000	0.6987	0.2530	9.6125
1.8050	0.6754	0.2548	9.6233
1.8100	0.7268	0.2722	9.6317
1.8150	0.6592	0.2674	9.5826
1.8200	0.6658	0.2536	9.6526
1.8250	0.7226	0.2632	9.6652
1.8300	0.6891	0.2728	9.6329
1.8350	0.6814	0.2536	9.6155
1.8400	0.6760	0.2644	9.6257
1.8450	0.6682	0.2626	9.6101
1.8500	0.6718	0.2644	9.6370
1.8550	0.6814	0.2465	9.6269
1.8600	0.6682	0.2381	9.6203
1.8650	0.6443	0.2620	9.6317
1.8700	0.6975	0.2554	9.6179
1.8750	0.6843	0.2429	9.6460
1.8800	0.6712	0.2423	9.6849
1.8850	0.6861	0.2518	9.6221
1.8900	0.6568	0.2435	9.6364
1.8950	0.6861	0.2770	9.6311
1.9000	0.6802	0.2698	9.5952
1.9050	0.6574	0.2261	9.6538
1.9100	0.6532	0.2566	9.6239
1.9150	0.7113	0.2734	9.6149
1.9200	0.6760	0.2656	9.6233
1.9250	0.6802	0.2740	9.6496
1.9300	0.6993	0.2572	9.6293
1.9350	0.6652	0.2309	9.6472
1.9400	0.6760	0.2644	9.6029
1.9450	0.6825	0.2698	9.5976
1.9500	0.6634	0.2327	9.6281
1.9550	0.7065	0.2536	9.6293
1.9600	0.6778	0.2644	9.6311
1.9650	0.6706	0.2351	9.6352
1.9700	0.6855	0.2405	9.6448
1.9750	0.6718	0.2788	9.6275
1.9800	0.6921	0.2620	9.6681
1.9850	0.6802	0.2740	9.6197
1.9900	0.6604	0.2183	9.6041
1.9950	0.6520	0.2578	9.6059
2.0000	0.6891	0.2459	9.6149
2.0050	0.6736	0.2495	9.6502
2.0100	0.6831	0.2692	9.5988
2.0150	0.6933	0.2548	9.6484
2.0200	0.6658	0.2638	9.6634
2.0250	0.6825	0.2285	9.6628
2.0300	0.6837	0.2602	9.6352
2.0350	0.6921	0.2423	9.6478
2.0400	0.6808	0.2483	9.6137
2.0450	0.6293	0.2411	9.5736
2.0500	0.6843	0.2566	9.6293
2.0550	0.6766	0.2483	9.5946
2.0600	0.6885	0.2883	9.6107
2.0650	0.6951	0.2327	9.6364
2.0700	0.6526	0.2704	9.5832
2.0750	0.6849	0.2512	9.5778
2.0800	0.6688	0.2865	9.6478
2.0850	0.7125	0.2351	9.6598
2.0900	0.6855	0.2459	9.6370
2.0950	0.6963	0.2590	9.6526
2.1000	0.6808	0.2530	9.5796
2.1050	0.6640	0.2758	9.5934
2.1100	0.6814	0.2662	9.6000
2.1150	0.6825	0.2423	9.6041
2.1200	0.7017	0.2530	9.6484
2.1250	0.7089	0.2608	9.6215
2.1300	0.6897	0.2471	9.6508
2.1350	0.6389	0.2632	9.5766
2.1400	0.6742	0.2650	9.6281
2.1450	0.6664	0.2560	9.6143
2.1500	0.6748	0.2710	9.6239
2.1550	0.6772	0.2680	9.6251
2.1600	0.6957	0.2632	9.6412
2.1650	0.6915	0.2704	9.6077
2.1700	0.6802	0.2441	9.6221
2.1750	0.6933	0.2554	9.6963
2.1800	0.6784	0.2620	9.6424
2.1850	0.7143	0.2524	9.6107
2.1900	0.6927	0.2512	9.6466
2.1950	0.6849	0.2644	9.6317
2.2000	0.6706	0.2285	9.6257
2.2050	0.6945	0.2423	9.6053
2.2100	0.6909	0.2375	9.5910
2.2150	0.6891	0.2447	9.6335
2.2200	0.7083	0.2566	9.6203
2.2250	0.6921	0.2213	9.6436
2.2300	0.6622	0.2465	9.6436
2.2350	0.6784	0.2483	9.6352
2.2400	0.6987	0.2465	9.6119
2.2450	0.6891	0.2584	9.6143
2.2500	0.7023	0.2512	9.6269
2.2550	0.6879	0.2435	9.6454
2.2600	0.6706	0.2584	9.6364
2.2650	0.6915	0.2626	9.6287
2.2700	0.6784	0.2596	9.6149
2.2750	0.6640	0.2656	9.6341
2.2800	0.6586	0.2656	9.6095
2.2850	0.6802	0.2495	9.6245
2.2900	0.6586	0.2554	9.6538
2.2950	0.6718	0.2596	9.6436
2.3000	0.7113	0.2363	9.6311
2.3050	0.6957	0.2734	9.6335
2.3100	0.6700	0.2818	9.6358
2.3150	0.6568	0.2680	9.6305
2.3200	0.6891	0.2650	9.6604
2.3250	0.6718	0.2572	9.6532
2.3300	0.6688	0.2506	9.6741
2.3350	0.6927	0.2560	9.6203
2.3400	0.6730	0.2435	9.6113
2.3450	0.6873	0.2650	9.6364
2.3500	0.7041	0.2518	9.6358
2.3550	0.6879	0.2716	9.6717
2.3600	0.6945	0.2668	9.5007
2.3650	0.6772	0.2542	9.5832
2.3700	0.7035	0.2818	9.6358
2.3750	0.6664	0.2405	9.5928
2.3800	0.7160	0.2465	9.6077
2.3850	0.7011	0.2686	9.6191
2.3900	0.6933	0.2764	9.6143
2.3950	0.6736	0.2554	9.6269
2.4000	0.6885	0.2590	9.6143
2.4050	0.7220	0.2393	9.6329
2.4100	0.6628	0.2512	9.6670
2.4150	0.6688	0.2471	9.6281
2.4200	0.6831	0.2506	9.6550
2.4250	0.6843	0.2560	9.6047
2.4300	0.6658	0.2632	9.6233
2.4350	0.6604	0.2548	9.6221
2.4400	0.6796	0.2495	9.6388
2.4450	0.6658	0.2471	9.6059
2.4500	0.6927	0.2662	9.6305
2.4550	0.6622	0.2656	9.6335
2.4600	0.6831	0.2518	9.6598
2.4650	0.6939	0.2411	9.6424
2.4700	0.6939	0.2489	9.6364
2.4750	0.6628	0.2393	9.6179
2.4800	0.7178	0.2656	9.6275
2.4850	0.6951	0.2788	9.6095
2.4900	0.6772	0.2704	9.6329
2.4950	0.6706	0.2883	9.5659
2.5000	0.6831	0.2662	9.6071
2.5050	0.6951	0.2387	9.6789
2.5100	0.6885	0.2680	9.6580
2.5150	0.6712	0.2638	9.6394
2.5200	0.6736	0.2728	9.6257
2.5250	0.6879	0.2632	9.5988
2.5300	0.6676	0.2417	9.5832
2.5350	0.6927	0.2518	9.6293
2.5400	0.6891	0.2435	9.6454
2.5450	0.6461	0.2674	9.6059
2.5500	0.6730	0.2417	9.6699
2.5550	0.6742	0.2393	9.6071
2.5600	0.6562	0.2710	9.6269
2.5650	0.6712	0.2614	9.6185
2.5700	0.7256	0.2423	9.6735
2.5750	0.6479	0.2483	9.6508
2.5800	0.6867	0.2321	9.5994
2.5850	0.6712	0.2542	9.6520
2.5900	0.6957	0.2548	9.6293
2.5950	0.6855	0.2399	9.6305
2.6000	0.6592	0.2471	9.6628
2.6050	0.7286	0.2662	9.6358
2.6100	0.6730	0.2536	9.5856
2.6150	0.6760	0.2602	9.6454
2.6200	0.6939	0.2429	9.6269
2.6250	0.6879	0.2512	9.6400
2.6300	0.6754	0.2477	9.6598
2.6350	0.6820	0.2417	9.6364
2.6400	0.6808	0.2602	9.5934
2.6450	0.6640	0.2477	9.6191
2.6500	0.6700	0.2662	9.6418
2.6550	0.6933	0.2704	9.6179
2.6600	0.6616	0.2357	9.6323
2.6650	0.6760	0.2578	9.5994
2.6700	0.6772	0.2524	9.6424
2.6750	0.6903	0.2518	9.6717
2.6800	0.6586	0.2477	9.6287
2.6850	0.6664	0.2704	9.5946
2.6900	0.6808	0.2806	9.6191
2.6950	0.7035	0.2500	9.6269
2.7000	0.6963	0.2554	9.6346
2.7050	0.6837	0.2776	9.6628
2.7100	0.6544	0.2351	9.6059
2.7150	0.6772	0.2477	9.6095
2.7200	0.6640	0.2512	9.6376
2.7250	0.6730	0.2435	9.6592
2.7300	0.6778	0.2650	9.5928
2.7350	0.6688	0.2596	9.6376
2.7400	0.6796	0.2566	9.5808
2.7450	0.6736	0.2512	9.6167
2.7500	0.7113	0.2584	9.6598
2.7550	0.7047	0.2656	9.6364
2.7600	0.6909	0.2512	9.6448
2.7650	0.6981	0.2506	9.6173
2.7700	0.6873	0.2626	9.6203
2.7750	0.6532	0.2596	9.6490
2.7800	0.6808	0.2566	9.6352
2.7850	0.6808	0.2584	9.6006
2.7900	0.6568	0.2710	9.6299
2.7950	0.6766	0.2369	9.6107
2.8000	0.6873	0.2632	9.6676
2.8050	0.6742	0.2584	9.6275
2.8100	0.6981	0.2453	9.6167
2.8150	0.6485	0.2770	9.6370
2.8200	0.6670	0.2704	9.6179
2.8250	0.6646	0.2459	9.6269
2.8300	0.6802	0.2716	9.6580
2.8350	0.6802	0.2429	9.6664
2.8400	0.6706	0.2477	9.6370
2.8450	0.6903	0.2614	9.6239
2.8500	0.6622	0.2572	9.6095
2.8550	0.6754	0.2608	9.6418
2.8600	0.6855	0.2752	9.6155
2.8650	0.7011	0.2542	9.6388
2.8700	0.6766	0.2554	9.6658
2.8750	0.6945	0.2710	9.6293
2.8800	0.6891	0.2506	9.6346
2.8850	0.6975	0.2656	9.6287
2.8900	0.6718	0.2614	9.6538
2.8950	0.6532	0.2584	9.6053
2.9000	0.6808	0.2405	9.6065
2.9050	0.6628	0.2818	9.6299
2.9100	0.6861	0.2530	9.6508
2.9150	0.6790	0.2572	9.6448
2.9200	0.6736	0.2465	9.6245
2.9250	0.6837	0.2423	9.6173
2.9300	0.6933	0.2764	9.5694
2.9350	0.6879	0.2584	9.6628
2.9400	0.6646	0.2536	9.6430
2.9450	0.6802	0.2548	9.6430
2.9500	0.6897	0.2554	9.6358
2.9550	0.6855	0.2632	9.6077
2.9600	0.6915	0.2626	9.6442
2.9650	0.6580	0.2231	9.6514
2.9700	0.6975	0.2542	9.6209
2.9750	0.6772	0.2626	9.6179
2.9800	0.6754	0.2554	9.6143
2.9850	0.6670	0.2548	9.6311
2.9900	0.6778	0.2387	9.5892
2.9950	0.7077	0.2405	9.5940
3.0000	0.6766	0.2596	9.6532
3.0050	0.6754	0.2530	9.6245
3.0100	0.6718	0.2668	9.6269
3.0150	0.6646	0.2692	9.6341
3.0200	0.7071	0.2548	9.6209
3.0250	0.6694	0.2530	9.6705
3.0300	0.7047	0.2512	9.6478
3.0350	0.6730	0.2518	9.5784
3.0400	0.6676	0.2572	9.6191
3.0450	0.6825	0.2692	9.6221
3.0500	0.6646	0.2680	9.6263
3.0550	0.6873	0.2710	9.6251
3.0600	0.6604	0.2471	9.5934
3.0650	0.6849	0.2614	9.7770
3.0700	0.7155	0.2512	9.6484
3.0750	0.6945	0.2560	9.6346
3.0800	0.7137	0.2399	9.6358
3.0850	0.6849	0.2632	9.6406
3.0900	0.6736	0.2584	9.6137
3.0950	0.7017	0.2500	9.6634
3.1000	0.7047	0.2560	9.6311
3.1050	0.6891	0.2500	9.6143
3.1100	0.6485	0.2847	9.6191
3.1150	0.6802	0.2698	9.5904
3.1200	0.6867	0.2393	9.6580
3.1250	0.6598	0.2668	9.6777
3.1300	0.6532	0.2548	9.6466
3.1350	0.6784	0.2620	9.6341
3.1400	0.6861	0.2441	9.6077
3.1450	0.6532	0.2584	9.6376
3.1500	0.6574	0.2572	9.6323
3.1550	0.6825	0.2512	9.6215
3.1600	0.6873	0.2644	9.6143
3.1650	0.6814	0.2548	9.6430
3.1700	0.6843	0.2423	9.6191
3.1750	0.6395	0.2668	9.6352
3.1800	0.6843	0.2620	9.6257
3.1850	0.6867	0.2363	9.6424
3.1900	0.6742	0.2554	9.6574
3.1950	0.7208	0.2554	9.6406
3.2000	0.6879	0.2423	9.5946
3.2050	0.6712	0.2471	9.6496
3.2100	0.6957	0.2734	9.6233
3.2150	0.6688	0.2536	9.6233
3.2200	0.6891	0.2393	9.6502
3.2250	0.6820	0.2758	9.6514
3.2300	0.6861	0.2638	9.6035
3.2350	0.6610	0.2668	9.6149
3.2400	0.6849	0.2483	9.6149
3.2450	0.7011	0.2740	9.6448
3.2500	0.6664	0.2740	9.6287
3.2550	0.6353	0.2518	9.6053
3.2600	0.7053	0.2471	9.6185
3.2650	0.6640	0.2782	9.5982
3.2700	0.6664	0.2728	9.6430
3.2750	0.6915	0.2692	9.6652
3.2800	0.6837	0.2524	9.6071
3.2850	0.6712	0.2512	9.6269
3.2900	0.7430	0.2602	9.6879
3.2950	0.6915	0.2614	9.6281
3.3000	0.7107	0.2393	9.6514
3.3050	0.6676	0.2309	9.6562
3.3100	0.6730	0.2536	9.6227
3.3150	0.6831	0.2477	9.6394
3.3200	0.6568	0.2644	9.6012
3.3250	0.6634	0.2632	9.5934
3.3300	0.6802	0.2704	9.6155
3.3350	0.6664	0.2686	9.6311
3.3400	0.6855	0.2435	9.6239
3.3450	0.6784	0.2506	9.5712
3.3500	0.6837	0.2578	9.6341
3.3550	0.6945	0.2423	9.6179
3.3600	0.6670	0.2680	9.7704
3.3650	0.6927	0.2339	9.6077
3.3700	0.7017	0.2518	9.6562
3.3750	0.6748	0.2483	9.6017
3.3800	0.6796	0.2489	9.5772
3.3850	0.6766	0.2524	9.6299
3.3900	0.7035	0.2536	9.6071
3.3950	0.6814	0.2638	9.6305
3.4000	0.6778	0.2704	9.6341
3.4050	0.6825	0.2500	9.6053
3.4100	0.6915	0.2548	9.6670
3.4150	0.6963	0.2500	9.6035
3.4200	0.6987	0.2614	9.6598
3.4250	0.6508	0.2489	9.6275
3.4300	0.7262	0.2566	9.6119
3.4350	0.6718	0.2357	9.6430
3.4400	0.7077	0.2770	9.6269
3.4450	0.6532	0.2620	9.6341
3.4500	0.6694	0.2746	9.7950
3.4550	0.6867	0.2512	9.6029
3.4600	0.6706	0.2333	9.6442
3.4650	0.6861	0.2578	9.6281
3.4700	0.6802	0.2644	9.6095
3.4750	0.6712	0.2716	9.6035
3.4800	0.6742	0.2399	9.6101
3.4850	0.7029	0.2662	9.6245
3.4900	0.6712	0.2704	9.6239
3.4950	0.6449	0.2483	9.6221
3.5000	0.6754	0.2423	9.5682
3.5050	0.6802	0.2614	9.6185
3.5100	0.6957	0.2656	9.6251
3.5150	0.6963	0.2632	9.6209
3.5200	0.6855	0.2518	9.6281
3.5250	0.6670	0.2590	9.6382
3.5300	0.6808	0.2680	9.6394
3.5350	0.6736	0.2578	9.6233
3.5400	0.6831	0.2357	9.6221
3.5450	0.6479	0.2800	9.6406
3.5500	0.6927	0.2477	9.6257
3.5550	0.6688	0.2381	9.6059
3.5600	0.6401	0.2471	9.6472
3.5650	0.6724	0.2566	9.4953
3.5700	0.6646	0.2841	9.6885
3.5750	0.6820	0.2518	9.5970
3.5800	0.6628	0.2572	9.6442
3.5850	0.6419	0.2865	9.6394
3.5900	0.6634	0.2536	9.5886
3.5950	0.6592	0.2620	9.5952
3.6000	0.6664	0.2566	9.6568
3.6050	0.6987	0.2656	9.6167
3.6100	0.6598	0.2638	9.6143
3.6150	0.6831	0.2578	9.6556
3.6200	0.6897	0.2542	9.5922
3.6250	0.6760	0.2752	9.6071
3.6300	0.6514	0.2686	9.5001
3.6350	0.6766	0.2584	9.5712
3.6400	0.6604	0.2333	9.6113
3.6450	0.6664	0.2548	9.6448
3.6500	0.7101	0.2429	9.6239
3.6550	0.6640	0.2453	9.7692
3.6600	0.7131	0.2590	9.6610
3.6650	0.6855	0.2698	9.6293
3.6700	0.6413	0.2399	9.6161
3.6750	0.6975	0.2423	9.6436
3.6800	0.6670	0.2500	9.6227
3.6850	0.6586	0.2518	9.6185
3.6900	0.6987	0.2560	9.6508
3.6950	0.6724	0.2590	9.6095
3.7000	0.7017	0.2572	9.7005
3.7050	0.6927	0.2560	9.6538
3.7100	0.6760	0.2572	9.6472
3.7150	0.6808	0.2644	9.6335
3.7200	0.6825	0.2477	9.6251
3.7250	0.6610	0.2500	9.6203
3.7300	0.6891	0.2740	9.6400
3.7350	0.7101	0.2548	9.6346
3.7400	0.6473	0.2584	9.6113
3.7450	0.6820	0.2650	9.7770
3.7500	0.6849	0.2800	9.6119
3.7550	0.6790	0.2512	9.6586
3.7600	0.7184	0.2459	9.6239
3.7650	0.6754	0.2584	9.6293
3.7700	0.6945	0.2668	9.6287
3.7750	0.6796	0.2770	9.6047
3.7800	0.6814	0.2602	9.6095
3.7850	0.7023	0.2417	9.6382
3.7900	0.6951	0.2530	9.6167
3.7950	0.6837	0.2387	9.6436
3.8000	0.6825	0.2680	9.6418
3.8050	0.6897	0.2369	9.5946
3.8100	0.6772	0.2447	9.6131
3.8150	0.6873	0.2495	9.6676
3.8200	0.6682	0.2578	9.6119
3.8250	0.6736	0.2459	9.6293
3.8300	0.6808	0.2536	9.6263
3.8350	0.6849	0.2644	9.6053
3.8400	0.6670	0.2453	9.6795
3.8450	0.6628	0.2548	9.6376
3.8500	0.6736	0.2489	9.6335
3.8550	0.6473	0.2728	9.6071
3.8600	0.7053	0.2764	9.6221
3.8650	0.6831	0.2674	9.6711
3.8700	0.6730	0.2644	9.6664
3.8750	0.6568	0.2495	9.6251
3.8800	0.6431	0.2740	9.6454
3.8850	0.6927	0.2560	9.5964
3.8900	0.6754	0.2752	9.6149
3.8950	0.6849	0.2285	9.6358
3.9000	0.6909	0.2584	9.6346
3.9050	0.6951	0.2554	9.5940
3.9100	0.6772	0.2614	9.6520
3.9150	0.6622	0.2650	9.6293
3.9200	0.6837	0.2650	9.6376
3.9250	0.6825	0.2632	9.6233
3.9300	0.6879	0.2776	9.5814
3.9350	0.6736	0.2578	9.6574
3.9400	0.6963	0.2716	9.6424
3.9450	0.6867	0.2423	9.6143
3.9500	0.6849	0.2728	9.6161
3.9550	0.6730	0.2500	9.6472
3.9600	0.6694	0.2548	9.6101
3.9650	0.6748	0.2423	9.6143
3.9700	0.6730	0.2566	9.6101
3.9750	0.6993	0.2447	9.6472
3.9800	0.7035	0.2656	9.6215
3.9850	0.6814	0.2632	9.6239
3.9900	0.6879	0.2309	9.6394
3.9950	0.6790	0.2417	9.6382
4.0000	0.6891	0.2560	9.6113
4.0050	0.6520	0.2381	9.6388
4.0100	0.6849	0.2650	9.6317
4.0150	0.6646	0.2399	9.4953
4.0200	0.6784	0.2602	9.6442
4.0250	0.7017	0.2542	9.6023
4.0300	0.6760	0.2692	9.6095
4.0350	0.6957	0.2303	9.6388
4.0400	0.6796	0.2471	9.7794
4.0450	0.6724	0.2548	9.6311
4.0500	0.6820	0.2722	9.6071
4.0550	0.6939	0.2710	9.6173
4.0600	0.6514	0.2542	9.6221
4.0650	0.6921	0.2728	9.6155
4.0700	0.6885	0.2632	9.6071
4.0750	0.6939	0.2734	9.6089
4.0800	0.6718	0.2572	9.6341
4.0850	0.7023	0.2716	9.6574
4.0900	0.6634	0.2548	9.6131
4.0950	0.6760	0.2459	9.6227
4.1000	0.6993	0.2668	9.6586
4.1050	0.6682	0.2674	9.6317
4.1100	0.6754	0.2650	9.5952
4.1150	0.6915	0.2483	9.6107
4.1200	0.6652	0.2393	9.6125
4.1250	0.6897	0.2566	9.6376
4.1300	0.6712	0.2656	9.6125
4.1350	0.6831	0.2447	9.6119
4.1400	0.6897	0.2542	9.6382
4.1450	0.6879	0.2435	9.6125
4.1500	0.7041	0.2483	9.6089
4.1550	0.6766	0.2590	9.6275
4.1600	0.6754	0.2554	9.6574
4.1650	0.6742	0.2638	9.6508
4.1700	0.6855	0.2542	9.6412
4.1750	0.6742	0.2500	9.6436
4.1800	0.6843	0.2620	9.6478
4.1850	0.6921	0.2429	9.6460
4.1900	0.6796	0.2465	9.6759
4.1950	0.6969	0.2369	9.6263
4.2000	0.6562	0.2465	9.5988
4.2050	0.6748	0.2536	9.6095
4.2100	0.6975	0.2489	9.6095
4.2150	0.6724	0.2459	9.6047
4.2200	0.6784	0.2578	9.7896
4.2250	0.6700	0.2692	9.5437
4.2300	0.6700	0.2536	9.6490
4.2350	0.6945	0.2411	9.6179
4.2400	0.7059	0.2429	9.6167
4.2450	0.6873	0.2554	9.7716
4.2500	0.6975	0.2722	9.6616
4.2550	0.7041	0.2483	9.6245
4.2600	0.6957	0.2465	9.6035
4.2651	0.7023	0.2279	9.6765
4.2701	0.6622	0.2770	9.5898
4.2751	0.6772	0.2698	9.6430
4.2801	0.6610	0.2686	9.5844
4.2851	0.6778	0.2656	9.6358
4.2901	0.6514	0.2584	9.6257
4.2951	0.6748	0.2835	9.6012
4.3001	0.6951	0.2489	9.6233
4.3051	0.6586	0.2512	9.6514
4.3101	0.6784	0.2411	9.6179
4.3151	0.6718	0.2489	9.6143
4.3201	0.6879	0.2548	9.6376
4.3251	0.6933	0.2620	9.6484
4.3301	0.6784	0.2435	9.6406
4.3351	0.6670	0.2471	9.6430
4.3401	0.6658	0.2572	9.6346
4.3451	0.7023	0.2512	9.6269
4.3501	0.6706	0.2608	9.6329
4.3551	0.7089	0.2716	9.6502
4.3601	0.6843	0.2506	9.6346
4.3651	0.6682	0.2560	9.6257
4.3701	0.6999	0.2560	9.6149
4.3751	0.6784	0.2734	9.6580
4.3801	0.6867	0.2536	9.6478
4.3851	0.6945	0.2572	9.6227
4.3901	0.6580	0.2447	9.6329
4.3951	0.6831	0.2632	9.6329
4.4001	0.6796	0.2506	9.6514
4.4051	0.6831	0.2608	9.6574
4.4101	0.6730	0.2536	9.6125
4.4151	0.6461	0.2560	9.6580
4.4201	0.6867	0.2554	9.6358
4.4251	0.6610	0.2608	9.6329
4.4301	0.6825	0.2542	9.6747
4.4351	0.6903	0.2489	9.6311
4.4401	0.6766	0.2668	9.6263
4.4451	0.6730	0.2393	9.6257
4.4501	0.7065	0.2243	9.6179
4.4551	0.6921	0.2447	9.6418
4.4601	0.6622	0.2608	9.6394
4.4651	0.6664	0.2596	9.6191
4.4701	0.6700	0.2590	9.6532
4.4751	0.6837	0.2662	9.6370
4.4801	0.6975	0.2524	9.6269
4.4851	0.6969	0.2572	9.6472
4.4901	0.6879	0.2560	9.6053
4.4951	0.6419	0.2548	9.6065
4.5001	0.6682	0.2489	9.6676
4.5051	0.6760	0.2692	9.6012
4.5101	0.6861	0.2626	9.6376
4.5151	0.6760	0.2614	9.6221
4.5201	0.6831	0.2453	9.6077
4.5251	0.6814	0.2477	9.6215
4.5301	0.6849	0.2465	9.6167
4.5351	0.6455	0.2512	9.6245
4.5401	0.6766	0.2417	9.7998
4.5451	0.6915	0.2524	9.6430
4.5501	0.6891	0.2692	9.6394
4.5551	0.6993	0.2662	9.6634
4.5601	0.7107	0.2333	9.6245
4.5651	0.6790	0.2626	9.6299
4.5701	0.6999	0.2632	9.6221
4.5751	0.6820	0.2495	9.6287
4.5801	0.6915	0.2459	9.6329
4.5851	0.6377	0.2459	9.5778
4.5901	0.6754	0.2620	9.6197
4.5951	0.6592	0.2704	9.6041
4.6001	0.6766	0.2524	9.6741
4.6051	0.6837	0.2524	9.6424
4.6101	0.6760	0.2512	9.5748
4.6151	0.6825	0.2680	9.6436
4.6201	0.6646	0.2405	9.6364
4.6251	0.6688	0.2536	9.6610
4.6301	0.6957	0.2471	9.5007
4.6351	0.6796	0.2668	9.6149
4.6401	0.7101	0.2596	9.6047
4.6451	0.6867	0.2500	9.6352
4.6501	0.6496	0.2704	9.6167
4.6551	0.6766	0.2812	9.6227
4.6601	0.6861	0.2584	9.6143
4.6651	0.6766	0.2674	9.6478
4.6701	0.6604	0.2626	9.6035
4.6751	0.6700	0.2674	9.6191
4.6801	0.6712	0.2668	9.6209
4.6851	0.6754	0.2536	9.6472
4.6901	0.6658	0.2632	9.5976
4.6951	0.6437	0.2632	9.6113
4.7001	0.6873	0.2375	9.6179
4.7051	0.6915	0.2524	9.6137
4.7101	0.6933	0.2710	9.6149
4.7151	0.6479	0.2560	9.6245
4.7201	0.6825	0.2393	9.6053
4.7251	0.6963	0.2644	9.6281
4.7301	0.6700	0.2423	9.6634
4.7351	0.6837	0.2405	9.6119
4.7401	0.6754	0.2369	9.6484
4.7451	0.6814	0.2489	9.6544
4.7501	0.6802	0.2465	9.6400
4.7551	0.6640	0.2716	9.6436
4.7601	0.6909	0.2608	9.6191
4.7651	0.6957	0.2650	9.6299
4.7701	0.6646	0.2614	9.6568
4.7751	0.6909	0.2764	9.6358
4.7801	0.6580	0.2596	9.5820
4.7851	0.6622	0.2530	9.6490
4.7901	0.6736	0.2853	9.6257
4.7951	0.6879	0.2333	9.6526
4.8001	0.6909	0.2764	9.6412
4.8051	0.6730	0.2662	9.6083
4.8101	0.6568	0.2524	9.6221
4.8151	0.6676	0.2841	9.6418
4.8201	0.6790	0.2495	9.6460
4.8251	0.6760	0.2506	9.6472
4.8301	0.6760	0.2518	9.6484
4.8351	0.6778	0.2734	9.6203
4.8401	0.6508	0.2453	9.6358
4.8451	0.6987	0.2524	9.6580
4.8501	0.6808	0.2536	9.6358
4.8551	0.6790	0.2429	9.6436
4.8601	0.6682	0.2441	9.6173
4.8651	0.6706	0.2524	9.6293
4.8701	0.7029	0.2572	9.5952
4.8751	0.6694	0.2542	9.6155
4.8801	0.6879	0.2393	9.6717
4.8851	0.6831	0.2764	9.6388
4.8901	0.6616	0.2548	9.6526
4.8951	0.6837	0.2536	9.5934
4.9001	0.6706	0.2644	9.6029
4.9051	0.6688	0.2632	9.6227
4.9101	0.6592	0.2477	9.6538
4.9151	0.6915	0.2734	9.6083
4.9201	0.6933	0.2608	9.6376
4.9251	0.6969	0.2602	9.6239
4.9301	0.6999	0.2584	9.6478
4.9351	0.6837	0.2668	9.5988
4.9401	0.6867	0.2357	9.6484
4.9451	0.6490	0.2668	9.6149
4.9501	0.6861	0.2560	9.6227
4.9551	0.6598	0.2566	9.6317
4.9601	0.6784	0.2752	9.5940
4.9651	0.6861	0.2495	9.6179
4.9701	0.6299	0.2375	9.6143
4.9751	0.6831	0.2632	9.6203
4.9801	0.6969	0.2596	9.6520
4.9851	0.6730	0.2327	9.6161
4.9901	0.6712	0.2716	9.6107
4.9951	0.6891	0.2297	9.6478
5.0001	0.6879	0.2602	9.6490
5.0051	0.6921	0.2524	9.6424
5.0101	0.7053	0.2584	9.6771
5.0151	0.6610	0.2800	9.6346
5.0201	0.6694	0.2656	9.6071
5.0251	0.6736	0.2602	9.6568
5.0301	0.6879	0.2477	9.6550
5.0351	0.7083	0.2267	9.6197
5.0401	0.6760	0.2632	9.6167
5.0451	0.6963	0.2584	9.6520
5.0501	0.6861	0.2512	9.5736
5.0551	0.6820	0.2626	9.6293
5.0601	0.6843	0.2764	9.5964
5.0651	0.6574	0.2548	9.5766
5.0701	0.7190	0.2674	9.6352
5.0751	0.6867	0.2572	9.6089
5.0801	0.7047	0.2524	9.6059
5.0851	0.6849	0.2459	9.6532
5.0901	0.6688	0.2477	9.6089
5.0951	0.6748	0.2536	9.6047
5.1001	0.6628	0.2560	9.6179
5.1051	0.6712	0.2608	9.6364
5.1101	0.6718	0.2578	9.6179
5.1151	0.6706	0.2524	9.6711
5.1201	0.6628	0.2578	9.6161
5.1251	0.6574	0.2536	9.6023
5.1301	0.6831	0.2459	9.6346
5.1351	0.6831	0.2518	9.6466
5.1401	0.6784	0.2668	9.6275
5.1451	0.6855	0.2572	9.6478
5.1501	0.7394	0.2794	9.6819
5.1551	0.6843	0.2680	9.6400
5.1601	0.6742	0.2632	9.6448
5.1651	0.6634	0.2512	9.5874
5.1701	0.6550	0.2572	9.6466
5.1751	0.6658	0.2620	9.5946
5.1801	0.6754	0.2536	9.6448
5.1851	0.7047	0.2500	9.6281
5.1901	0.6544	0.2788	9.6394
5.1951	0.6730	0.2620	9.6203
5.2001	0.6664	0.2536	9.6209
5.2051	0.6981	0.2542	9.6436
5.2101	0.6969	0.2524	9.6364
5.2151	0.6610	0.2722	9.6161
5.2201	0.6652	0.2668	9.6125
5.2251	0.6981	0.2716	9.6155
5.2301	0.6742	0.2800	9.6113
5.2351	0.6736	0.2554	9.6197
5.2401	0.6772	0.2351	9.6107
5.2451	0.6808	0.2524	9.6017
5.2501	0.6766	0.2500	9.6233
5.2551	0.6754	0.2399	9.5844
5.2601	0.6867	0.2578	9.6173
5.2651	0.7160	0.2417	9.6137
5.2701	0.6790	0.2566	9.6646
5.2751	0.7011	0.2680	9.6436
5.2801	0.6885	0.2506	9.6047
5.2851	0.6772	0.2459	9.6149
5.2901	0.6957	0.2435	9.6586
5.2951	0.6820	0.2441	9.6281
5.3001	0.6550	0.2512	9.6376
5.3051	0.6778	0.2363	9.6227
5.3101	0.6700	0.2764	9.6143
5.3151	0.7011	0.2477	9.5988
5.3201	0.6628	0.2668	9.6095
5.3251	0.6843	0.2674	9.6299
5.3301	0.6730	0.2686	9.6699
5.3351	0.6712	0.2315	9.6293
5.3401	0.6843	0.2429	9.6167
5.3451	0.6760	0.2608	9.6299
5.3501	0.6897	0.2662	9.6119
5.3551	0.6556	0.2560	9.5868
5.3601	0.6909	0.2584	9.6550
5.3651	0.6820	0.2686	9.6191
5.3701	0.6772	0.2429	9.6077
5.3751	0.6915	0.2806	9.6197
5.3801	0.6885	0.2584	9.6293
5.3851	0.6664	0.2495	9.6041
5.3901	0.6927	0.2650	9.6113
5.3951	0.6909	0.2453	9.6424
5.4001	0.7059	0.2572	9.6376
5.4051	0.6993	0.2435	9.5742
5.4101	0.6808	0.2578	9.6203
5.4151	0.6885	0.2483	9.6179
5.4201	0.7137	0.2297	9.6119
5.4251	0.6628	0.2435	9.7728
5.4301	0.6885	0.2578	9.6017
5.4351	0.6604	0.2530	9.6179
5.4401	0.6580	0.2674	9.6227
5.4451	0.7274	0.2554	9.6299
5.4501	0.6754	0.2662	9.6454
5.4551	0.6891	0.2429	9.6131
5.4601	0.6915	0.2692	9.6263
5.4651	0.6772	0.2740	9.6083
5.4701	0.6694	0.2590	9.6053
5.4751	0.6712	0.2542	9.6580
5.4801	0.6550	0.2524	9.6502
5.4851	0.6975	0.2530	9.6119
5.4901	0.6610	0.2512	9.6323
5.4951	0.6568	0.2524	9.6101
5.5001	0.6772	0.2746	9.6640
5.5051	0.6724	0.2710	9.6424
5.5101	0.6317	0.2656	9.5778
5.5151	0.7029	0.2471	9.6364
5.5201	0.7160	0.2542	9.6418
5.5251	0.6831	0.2518	9.5952
5.5301	0.6921	0.2680	9.6317
5.5351	0.6820	0.2524	9.5976
5.5401	0.6855	0.2632	9.6610
5.5451	0.6568	0.2512	9.6257
5.5501	0.6909	0.2405	9.6514
5.5551	0.7095	0.2512	9.6346
5.5601	0.6975	0.2668	9.6412
5.5651	0.6676	0.2614	9.5928
5.5701	0.6730	0.2656	9.5808
5.5751	0.6951	0.2638	9.6305
5.5801	0.6628	0.2477	9.6209
5.5851	0.6730	0.2536	9.6370
5.5901	0.6903	0.2339	9.6143
5.5951	0.6592	0.2758	9.6239
5.6001	0.6562	0.2650	9.6227
5.6051	0.6993	0.2608	9.6161
5.6101	0.6885	0.2285	9.6472
5.6151	0.7029	0.2495	9.6484
5.6201	0.6915	0.2572	9.6233
5.6251	0.6616	0.2692	9.6311
5.6301	0.6885	0.2542	9.6406
5.6351	0.6712	0.2375	9.6161
5.6401	0.6963	0.2572	9.6394
5.6451	0.6981	0.2602	9.6125
5.6501	0.6825	0.2411	9.6358
5.6551	0.6861	0.2548	9.6376
5.6601	0.6670	0.2596	9.6502
5.6651	0.6975	0.2465	9.6095
5.6701	0.6586	0.2542	9.6107
5.6751	0.6502	0.2680	9.5898
5.6801	0.6885	0.2632	9.6460
5.6851	0.6748	0.2710	9.6095
5.6901	0.6520	0.2536	9.6089
5.6951	0.6825	0.2489	9.6460
5.7001	0.6742	0.2524	9.6281
5.7051	0.6760	0.2734	9.6125
5.7101	0.6790	0.2632	9.6257
5.7151	0.6646	0.2740	9.6454
5.7201	0.6963	0.2512	9.6311
5.7251	0.6473	0.2770	9.6161
5.7301	0.6754	0.2512	9.6592
5.7351	0.6814	0.2560	9.6394
5.7401	0.6778	0.2554	9.6532
5.7451	0.6604	0.2309	9.6388
5.7501	0.6808	0.2351	9.6370
5.7551	0.6670	0.2590	9.6622
5.7601	0.6742	0.2530	9.6502
5.7651	0.6915	0.2530	9.6837
5.7701	0.6843	0.2554	9.6257
5.7751	0.6796	0.2560	9.6329
5.7801	0.6867	0.2590	9.6358
5.7851	0.6760	0.2620	9.6442
5.7901	0.6903	0.2267	9.6496
5.7951	0.6820	0.2387	9.6580
5.8001	0.7005	0.2668	9.6041
5.8051	0.6987	0.2770	9.6335
5.8101	0.6796	0.2614	9.6358
5.8151	0.7178	0.2632	9.6771
5.8201	0.6939	0.2548	9.6107
5.8251	0.6640	0.2662	9.6460
5.8301	0.6837	0.2542	9.6352
5.8351	0.6808	0.2560	9.6197
5.8401	0.6873	0.2489	9.6729
5.8451	0.6831	0.2614	9.6275
5.8501	0.6700	0.2590	9.6257
5.8551	0.6502	0.2710	9.6520
5.8601	0.6562	0.2752	9.6346
5.8651	0.6604	0.2596	9.6305
5.8701	0.6825	0.2495	9.6275
5.8751	0.6933	0.2668	9.6143
5.8801	0.6455	0.2524	9.5814
5.8851	0.6963	0.2686	9.6705
5.8901	0.7065	0.2686	9.6275
5.8951	0.6825	0.2638	9.6454
5.9001	0.6981	0.2578	9.6149
5.9051	0.6825	0.2435	9.6167
5.9101	0.6610	0.2477	9.6616
5.9151	0.6754	0.2566	9.6532
5.9201	0.7268	0.2387	9.6358
5.9251	0.6802	0.2447	9.6125
5.9301	0.6969	0.2483	9.6406
5.9351	0.6867	0.2500	9.5730
5.9401	0.6748	0.2518	9.6293
5.9451	0.6664	0.2483	9.6155
5.9501	0.6676	0.2596	9.6448
5.9551	0.6867	0.2345	9.6209
5.9601	0.6915	0.2608	9.6233
5.9651	0.6760	0.2626	9.6173
5.9701	0.6843	0.2489	9.6664
5.9751	0.6939	0.2500	9.6544
5.9801	0.6933	0.2626	9.6275
5.9851	0.6921	0.2357	9.6424
5.9901	0.6718	0.2740	9.6227
5.9951	0.6820	0.2465	9.6245
6.0001	0.6730	0.2465	9.6089
6.0051	0.6975	0.2686	9.6335
6.0101	0.6419	0.2441	9.5700
6.0151	0.6796	0.2602	9.7908
6.0201	0.6514	0.2656	9.5862
6.0251	0.6778	0.2429	9.6245
6.0301	0.6796	0.2608	9.6293
6.0351	0.7035	0.2524	9.6179
6.0401	0.6867	0.2500	9.6376
6.0451	0.6682	0.2632	9.6149
6.0501	0.6867	0.2614	9.6185
6.0551	0.6879	0.2441	9.6191
6.0601	0.6658	0.2704	9.6233
6.0651	0.6873	0.2512	9.6514
6.0701	0.6802	0.2483	9.6323
6.0751	0.6772	0.2752	9.6538
6.0801	0.6628	0.2752	9.6604
6.0851	0.6957	0.2393	9.6634
6.0901	0.6628	0.2710	9.6622
6.0951	0.6963	0.2566	9.6436
6.1001	0.6825	0.2195	9.6867
6.1051	0.6700	0.2542	9.6203
6.1101	0.7017	0.2572	9.6514
6.1151	0.6718	0.2554	9.6610
6.1201	0.6957	0.2662	9.6496
6.1251	0.7149	0.2447	9.5994
6.1301	0.6766	0.2680	9.6239
6.1351	0.6825	0.2554	9.6550
6.1401	0.6951	0.2459	9.6269
6.1451	0.6227	0.2674	9.6263
6.1501	0.6885	0.2692	9.6729
6.1551	0.6730	0.2309	9.6370
6.1601	0.6688	0.2453	9.6263
6.1651	0.6837	0.2602	9.6245
6.1701	0.6921	0.2477	9.6155
6.1751	0.6736	0.2686	9.6628
6.1801	0.6945	0.2662	9.6879
6.1851	0.7023	0.2447	9.6364
6.1901	0.6754	0.2506	9.6634
6.1951	0.6748	0.2536	9.6658
6.2001	0.6628	0.2554	9.6179
6.2051	0.6897	0.2578	9.5970
6.2101	0.6885	0.2506	9.6544
6.2151	0.6544	0.2530	9.6119
6.2201	0.6676	0.2554	9.4971
6.2251	0.6873	0.2572	9.5982
6.2301	0.6766	0.2638	9.5874
6.2351	0.6616	0.2812	9.6442
6.2401	0.6754	0.2542	9.5802
6.2451	0.6837	0.2453	9.6275
6.2501	0.6843	0.2841	9.6089
6.2551	0.7065	0.2907	9.6161
6.2601	0.6885	0.2506	9.6185
6.2651	0.6395	0.2841	9.6017
6.2701	0.6993	0.2566	9.5964
6.2751	0.6562	0.2411	9.6221
6.2801	0.6837	0.2560	9.6000
6.2851	0.6784	0.2584	9.6053
6.2901	0.6903	0.2596	9.6173
6.2951	0.6802	0.2518	9.6508
6.3001	0.6742	0.2381	9.6484
6.3051	0.6473	0.2548	9.6550
6.3101	0.6706	0.2536	9.6364
6.3151	0.7328	0.2584	9.6598
6.3201	0.6814	0.2459	9.5982
6.3251	0.6999	0.2674	9.6155
6.3301	0.6628	0.2530	9.5964
6.3351	0.6736	0.2512	9.7944
6.3401	0.6951	0.2572	9.6191
6.3451	0.6694	0.2411	9.6346
6.3501	0.6903	0.2429	9.6472
6.3551	0.6861	0.2578	9.6137
6.3601	0.6646	0.2824	9.5832
6.3651	0.6736	0.2542	9.6095
6.3701	0.6724	0.2584	9.6023
6.3751	0.6820	0.2632	9.6041
6.3801	0.6790	0.2566	9.6239
6.3851	0.6945	0.2650	9.6203
6.3901	0.6897	0.2560	9.6263
6.3951	0.6586	0.2530	9.6047
6.4001	0.6652	0.2453	9.6191
6.4051	0.7095	0.2734	9.6825
6.4101	0.6802	0.2489	9.6041
6.4151	0.6628	0.2375	9.6352
6.4201	0.6927	0.2518	9.6269
6.4251	0.6867	0.2471	9.6376
6.4301	0.6873	0.2734	9.6083
6.4351	0.6772	0.2530	9.6191
6.4401	0.6766	0.2668	9.6412
6.4451	0.6772	0.2483	9.6358
6.4501	0.6837	0.2782	9.6000
6.4551	0.6825	0.2686	9.6012
6.4601	0.6825	0.2548	9.6155
6.4651	0.6790	0.2782	9.6053
6.4701	0.6640	0.2764	9.6370
6.4751	0.6873	0.2560	9.6233
6.4801	0.6496	0.2560	9.6412
6.4851	0.6784	0.2578	9.6562
6.4901	0.6712	0.2722	9.6305
6.4951	0.6628	0.2429	9.6933
6.5001	0.6837	0.2512	9.5778
6.5051	0.6778	0.2614	9.6305
6.5101	0.6831	0.2913	9.5874
6.5151	0.6658	0.2650	9.6137
6.5201	0.6945	0.2632	9.6855
6.5251	0.6802	0.2560	9.6640
6.5301	0.6772	0.2381	9.6191
6.5351	0.6508	0.2680	9.6197
6.5401	0.6580	0.2548	9.6029
6.5451	0.6873	0.2788	9.6149
6.5501	0.6873	0.2692	9.6831
6.5551	0.6891	0.2662	9.6382
6.5601	0.6640	0.2279	9.6269
6.5651	0.6831	0.2500	9.6699
6.5701	0.6897	0.2578	9.6059
6.5751	0.6933	0.2596	9.6837
6.5801	0.6748	0.2788	9.7992
6.5851	0.6855	0.2506	9.5868
6.5901	0.6861	0.2518	9.6442
6.5951	0.6885	0.2536	9.6352
6.6001	0.7065	0.2512	9.6598
6.6051	0.6939	0.2566	9.6155
6.6101	0.6867	0.2764	9.6221
6.6151	0.6796	0.2650	9.5910
6.6201	0.6963	0.2506	9.6185
6.6251	0.6933	0.2686	9.6687
6.6301	0.6969	0.2465	9.6364
6.6351	0.6808	0.2512	9.6173
6.6401	0.6724	0.2459	9.6107
6.6451	0.6802	0.2405	9.6125
6.6501	0.6879	0.2518	9.6311
6.6551	0.6688	0.2596	9.6478
6.6601	0.7101	0.2489	9.6472
6.6651	0.6831	0.2429	9.6574
6.6701	0.6766	0.2614	9.6341
6.6751	0.6592	0.2536	9.6125
6.6801	0.6849	0.2590	9.6430
6.6851	0.6802	0.2483	9.6364
6.6901	0.6694	0.2512	9.6161
6.6951	0.6790	0.2632	9.6352
6.7001	0.6682	0.2710	9.6161
6.7051	0.6802	0.2692	9.6610
6.7101	0.6754	0.2471	9.6311
6.7151	0.6927	0.2566	9.6687
6.7201	0.6802	0.2512	9.6382
6.7251	0.6879	0.2656	9.5952
6.7301	0.6772	0.2620	9.6023
6.7351	0.6933	0.2495	9.6275
6.7401	0.7089	0.2638	9.6203
6.7451	0.6634	0.2590	9.6729
6.7501	0.6987	0.2626	9.6460
6.7551	0.7113	0.2381	9.5952
6.7601	0.6814	0.2536	9.6263
6.7651	0.6814	0.2518	9.6526
6.7701	0.6760	0.2566	9.5940
6.7751	0.6532	0.2518	9.6329
6.7801	0.6634	0.2572	9.6352
6.7851	0.6706	0.2692	9.7878
6.7901	0.6610	0.2495	9.7064
6.7951	0.6861	0.2477	9.6197
6.8001	0.6825	0.2548	9.6095
6.8051	0.6622	0.2524	9.6364
6.8101	0.6903	0.2644	9.6197
6.8151	0.6664	0.2261	9.6185
6.8201	0.6849	0.2554	9.6113
6.8251	0.7059	0.2674	9.6376
6.8301	0.6718	0.2584	9.6263
6.8351	0.6479	0.2602	9.6233
6.8401	0.6796	0.2608	9.6167
6.8451	0.6730	0.2471	9.6358
6.8501	0.6592	0.2441	9.6227
6.8551	0.6903	0.2542	9.6029
6.8601	0.6700	0.2584	9.6364
6.8651	0.6831	0.2512	9.6215
6.8701	0.6784	0.2465	9.6466
6.8751	0.6784	0.2435	9.6430
6.8801	0.6790	0.2770	9.5844
6.8851	0.7029	0.2662	9.6484
6.8901	0.6915	0.2656	9.6538
6.8951	0.6927	0.2423	9.6520
6.9001	0.6772	0.2441	9.6269
6.9051	0.6682	0.2602	9.6173
6.9101	0.6664	0.2584	9.5976
6.9151	0.6532	0.2644	9.6137
6.9201	0.7143	0.2500	9.6550
6.9251	0.6778	0.2578	9.6478
6.9301	0.6682	0.2704	9.6239
6.9351	0.6933	0.2435	9.6520
6.9401	0.6652	0.2363	9.5952
6.9451	0.6664	0.2405	9.6137
6.9501	0.6778	0.2710	9.5838
6.9551	0.6879	0.2590	9.6412
6.9601	0.6814	0.2554	9.6179
6.9651	0.6784	0.2483	9.6281
6.9701	0.6748	0.2734	9.6161
6.9751	0.6730	0.2369	9.6263
6.9801	0.6502	0.2572	9.6173
6.9851	0.6706	0.2710	9.6364
6.9901	0.6562	0.2530	9.6227
6.9951	0.6425	0.2602	9.5982
7.0001	0.6891	0.2734	9.5964
7.0051	0.6831	0.2572	9.6526
7.0101	0.6772	0.2554	9.6885
7.0151	0.7059	0.2656	9.6352
7.0201	0.6646	0.2477	9.6197
7.0251	0.6820	0.2536	9.6341
7.0301	0.6556	0.2650	9.6143
7.0351	0.6831	0.2692	9.6203
7.0401	0.6652	0.2650	9.6197
7.0451	0.6861	0.2405	9.6550
7.0501	0.6700	0.2453	9.6047
7.0551	0.6700	0.2650	9.6418
7.0601	0.7023	0.2477	9.6293
7.0651	0.6610	0.2788	9.6071
7.0701	0.6730	0.2495	9.6197
7.0751	0.6796	0.2548	9.6000
7.0801	0.6790	0.2542	9.6263
7.0851	0.7023	0.2453	9.6526
7.0901	0.6927	0.2273	9.6394
7.0951	0.6628	0.2524	9.6358
7.1001	0.6742	0.2692	9.5772
7.1051	0.6610	0.2429	9.6269
7.1101	0.6760	0.2674	9.6257
7.1151	0.6981	0.2375	9.6185
7.1201	0.6778	0.2495	9.6173
7.1251	0.6455	0.2644	9.6137
7.1301	0.6909	0.2656	9.6448
7.1351	0.6568	0.2471	9.6053
7.1401	0.6772	0.2614	9.6173
7.1451	0.6945	0.2638	9.6293
7.1501	0.6365	0.2722	9.5694
7.1551	0.6802	0.2554	9.6424
7.1601	0.6640	0.2512	9.6119
7.1651	0.6897	0.2818	9.6394
7.1701	0.6754	0.2399	9.7944
7.1751	0.6736	0.2764	9.6233
7.1801	0.6814	0.2656	9.6269
7.1851	0.6724	0.2818	9.6329
7.1901	0.6664	0.2704	9.5934
7.1951	0.6837	0.2698	9.7722
7.2001	0.7149	0.2620	9.6562
7.2051	0.6748	0.2614	9.6681
7.2101	0.6903	0.2710	9.6179
7.2151	0.6927	0.2746	9.6101
7.2201	0.6490	0.2584	9.6071
7.2251	0.6754	0.2614	9.6484
7.2301	0.6700	0.2722	9.6000
7.2351	0.6975	0.2614	9.6424
7.2401	0.6718	0.2620	9.6364
7.2451	0.6604	0.2512	9.6466
7.2501	0.6951	0.2548	9.6550
7.2551	0.6688	0.2608	9.6526
7.2601	0.6676	0.2393	9.6329
7.2651	0.6455	0.2680	9.6472
7.2701	0.6778	0.2590	9.6448
7.2751	0.6879	0.2656	9.6412
7.2801	0.6359	0.2710	9.5796
7.2851	0.6676	0.2608	9.6131
7.2901	0.6712	0.2644	9.6215
7.2951	0.6897	0.2453	9.6161
7.3001	0.6987	0.2572	9.6215
7.3051	0.6706	0.2441	9.6394
7.3101	0.7005	0.2471	9.6263
7.3151	0.6658	0.2483	9.6233
7.3201	0.6945	0.2429	9.6329
7.3251	0.6981	0.2638	9.6478
7.3301	0.6652	0.2764	9.6059
7.3351	0.6514	0.2542	9.6317
7.3401	0.6467	0.2351	9.6293
7.3451	0.6825	0.2465	9.6185
7.3501	0.6933	0.2596	9.5982
7.3551	0.6969	0.2770	9.6705
7.3601	0.6861	0.2590	9.6215
7.3651	0.6748	0.2596	9.6418
7.3701	0.6903	0.2536	9.6095
7.3751	0.6831	0.2692	9.6263
7.3801	0.7119	0.2800	9.6699
7.3851	0.6945	0.2554	9.6185
7.3901	0.6790	0.2411	9.6269
7.3951	0.6861	0.2536	9.6263
7.4001	0.7077	0.2841	9.4983
7.4051	0.6927	0.2626	9.6670
7.4101	0.6993	0.2710	9.6299
7.4151	0.6802	0.2626	9.6406
7.4201	0.6843	0.2764	9.6329
7.4251	0.6658	0.2554	9.6119
7.4301	0.6825	0.2506	9.6394
7.4351	0.6879	0.2518	9.6107
7.4401	0.6694	0.2662	9.6364
7.4451	0.6945	0.2297	9.6012
7.4501	0.6682	0.2500	9.6705
7.4551	0.6700	0.2447	9.6113
7.4601	0.6688	0.2399	9.6855
7.4651	0.6820	0.2734	9.6143
7.4701	0.6837	0.2471	9.5575
7.4751	0.6796	0.2518	9.6382
7.4801	0.6873	0.2638	9.6346
7.4851	0.7035	0.2548	9.6167
7.4901	0.6927	0.2566	9.7752
7.4951	0.6802	0.2489	9.6311
7.5001	0.6712	0.2483	9.5910
7.5051	0.7172	0.2596	9.6107
7.5101	0.6652	0.2620	9.6077
7.5151	0.6808	0.2524	9.6622
7.5201	0.6903	0.2554	9.6508
7.5251	0.6676	0.2453	9.6083
7.5301	0.6831	0.2650	9.6245
7.5351	0.6831	0.2608	9.6418
7.5401	0.6861	0.2650	9.5934
7.5451	0.6682	0.2429	9.6424
7.5501	0.6820	0.2429	9.6275
7.5551	0.6748	0.2309	9.6317
7.5601	0.6712	0.2644	9.6017
7.5651	0.6957	0.2542	9.6029
7.5701	0.6239	0.2512	9.6149
7.5751	0.6766	0.2524	9.6634
7.5801	0.6843	0.2608	9.4953
7.5851	0.6329	0.2387	9.5892
7.5901	0.6640	0.2506	9.6119
7.5951	0.6646	0.2614	9.6245
7.6001	0.6784	0.2758	9.6161
7.6051	0.6861	0.2740	9.6053
7.6101	0.6502	0.2471	9.6083
7.6151	0.6802	0.2608	9.6586
7.6201	0.6772	0.2590	9.6245
7.6251	0.6742	0.2584	9.6903
7.6301	0.6820	0.2644	9.6855
7.6351	0.6724	0.2530	9.6293
7.6401	0.6628	0.2345	9.6490
7.6451	0.6586	0.2686	9.6233
7.6501	0.6676	0.2560	9.6041
7.6551	0.6742	0.2710	9.6664
7.6601	0.6897	0.2554	9.6472
7.6651	0.6383	0.2536	9.5868
7.6701	0.6688	0.2536	9.7710
7.6751	0.6646	0.2638	9.6041
7.6801	0.6724	0.2692	9.6173
7.6851	0.6825	0.2489	9.6628
7.6901	0.6718	0.2644	9.5970
7.6951	0.6706	0.2578	9.6167
7.7001	0.6640	0.2680	9.6466
7.7051	0.6873	0.2512	9.6000
7.7101	0.6790	0.2650	9.6065
7.7151	0.6485	0.2477	9.6251
7.7201	0.6867	0.2662	9.6502
7.7251	0.6700	0.2441	9.5934
7.7301	0.6808	0.2572	9.6711
7.7351	0.7035	0.2620	9.6287
7.7401	0.6437	0.2489	9.5730
7.7451	0.6760	0.2602	9.6741
7.7501	0.6706	0.2489	9.6275
7.7551	0.6766	0.2548	9.6849
7.7601	0.6682	0.2602	9.7669
7.7651	0.6909	0.2399	9.6335
7.7701	0.6879	0.2578	9.6502
7.7751	0.6568	0.2489	9.6012
7.7801	0.6437	0.2500	9.6735
7.7851	0.6897	0.2632	9.6442
7.7901	0.6897	0.2536	9.6658
7.7951	0.6784	0.2291	9.6771
7.8001	0.6915	0.2483	9.6209
7.8051	0.6700	0.2614	9.6215
7.8101	0.6885	0.2656	9.6209
7.8151	0.7047	0.2572	9.6526
7.8201	0.6754	0.2483	9.6263
7.8251	0.6927	0.2465	9.6454
7.8301	0.6784	0.2638	9.6227
7.8351	0.6694	0.2465	9.6125
7.8401	0.6849	0.2339	9.6430
7.8451	0.6790	0.2542	9.6149
7.8501	0.7053	0.2722	9.6430
7.8551	0.6532	0.2656	9.6047
7.8601	0.6885	0.2596	9.6173
7.8651	0.6718	0.2746	9.6179
7.8701	0.6897	0.2590	9.6538
7.8751	0.6957	0.2536	9.6185
7.8801	0.6682	0.2620	9.6442
7.8851	0.6724	0.2644	9.6550
7.8901	0.6951	0.2794	9.6370
7.8951	0.6784	0.2560	9.6185
7.9001	0.6700	0.2524	9.7884
7.9051	0.6634	0.2441	9.6125
7.9101	0.6676	0.2524	9.6065
7.9151	0.6814	0.2548	9.6065
7.9201	0.6622	0.2578	9.6257
7.9251	0.6796	0.2686	9.6616
7.9301	0.7083	0.2453	9.6346
7.9351	0.6706	0.2483	9.5760
7.9401	0.6831	0.2650	9.6335
7.9451	0.6897	0.2626	9.6460
7.9501	0.6814	0.2590	9.5994
7.9551	0.6694	0.2471	9.6311
7.9601	0.6790	0.2423	9.6550
7.9651	0.6514	0.2590	9.6532
7.9701	0.7041	0.2626	9.6987
7.9751	0.6927	0.2782	9.6341
7.9801	0.6616	0.2632	9.6496
7.9851	0.6610	0.2614	9.5814
7.9901	0.6825	0.2459	9.5042
7.9951	0.6622	0.2776	9.6382
8.0001	0.6700	0.2620	9.6029
8.0051	0.6694	0.2471	9.6203
8.0101	0.6479	0.2614	9.6418
8.0151	0.6748	0.2578	9.6095
8.0201	0.6903	0.2530	9.6376
8.0251	0.6879	0.2417	9.6149
8.0301	0.6897	0.2495	9.6490
8.0351	0.6622	0.2602	9.6209
8.0401	0.6814	0.2650	9.6687
8.0451	0.6861	0.2387	9.6532
8.0501	0.6748	0.2453	9.6705
8.0551	0.6981	0.2560	9.7555
8.0601	0.6987	0.2441	9.6017
8.0651	0.6700	0.2662	9.6801
8.0701	0.6831	0.2405	9.6006
8.0751	0.6849	0.2489	9.6197
8.0801	0.6604	0.2447	9.6400
8.0851	0.6951	0.2393	9.6586
8.0901	0.6742	0.2453	9.6047
8.0951	0.6682	0.2644	9.5814
8.1001	0.7184	0.2752	9.6616
8.1051	0.6891	0.2465	9.6161
8.1101	0.6718	0.2483	9.6047
8.1151	0.6694	0.2560	9.6436
8.1201	0.6802	0.2566	9.6544
8.1251	0.6802	0.2566	9.6029
8.1301	0.6784	0.2375	9.6149
8.1351	0.7059	0.2638	9.6562
8.1401	0.6808	0.2483	9.6448
8.1451	0.6724	0.2584	9.6436
8.1501	0.7071	0.2405	9.6556
8.1551	0.6867	0.2560	9.6550
8.1601	0.6802	0.2512	9.6448
8.1651	0.6820	0.2680	9.6526
8.1701	0.6754	0.2584	9.6107
8.1751	0.6831	0.2704	9.6071
8.1801	0.6825	0.2309	9.6634
8.1851	0.6837	0.2566	9.6083
8.1901	0.6664	0.2441	9.6119
8.1951	0.6975	0.2429	9.6293
8.2001	0.6532	0.2584	9.6221
8.2051	0.6658	0.2626	9.6113
8.2101	0.7125	0.2632	9.6508
8.2151	0.7017	0.2512	9.6352
8.2201	0.6885	0.2602	9.6496
8.2251	0.6814	0.2590	9.6329
8.2301	0.6700	0.2626	9.6227
8.2351	0.6736	0.2620	9.6400
8.2401	0.6849	0.2447	9.5970
8.2451	0.6921	0.2453	9.6370
8.2501	0.6706	0.2662	9.6622
8.2551	0.6772	0.2668	9.6400
8.2601	0.6742	0.2405	9.7860
8.2651	0.7107	0.2506	9.6335
8.2701	0.6820	0.2572	9.5868
8.2751	0.6658	0.2824	9.6221
8.2801	0.6664	0.2632	9.5461
8.2851	0.6712	0.2590	9.7692
8.2901	0.6700	0.2303	9.6831
8.2951	0.6718	0.2752	9.6604
8.3001	0.6724	0.2548	9.6257
8.3051	0.6706	0.2584	9.6436
8.3101	0.6873	0.2632	9.6825
8.3151	0.6993	0.2506	9.6394
8.3201	0.6760	0.2578	9.6317
8.3251	0.6820	0.2333	9.6484
8.3301	0.6837	0.2542	9.6418
8.3351	0.6736	0.2524	9.6508
8.3401	0.6742	0.2453	9.6197
8.3451	0.6885	0.2584	9.6179
8.3501	0.6885	0.2596	9.6155
8.3551	0.6628	0.2644	9.6173
8.3601	0.6766	0.2847	9.6777
8.3651	0.6772	0.2782	9.6149
8.3701	0.6736	0.2453	9.6472
8.3751	0.6790	0.2512	9.6287
8.3801	0.6610	0.2656	9.6490
8.3851	0.6730	0.2489	9.6263
8.3901	0.7029	0.2632	9.6101
8.3951	0.6706	0.2824	9.6149
8.4001	0.6664	0.2303	9.6364
8.4051	0.6885	0.2417	9.6490
8.4101	0.6772	0.2596	9.6023
8.4151	0.6927	0.2578	9.6215
8.4201	0.6490	0.2423	9.6287
8.4251	0.6993	0.2399	9.6263
8.4301	0.6568	0.2698	9.6329
8.4351	0.6969	0.2626	9.6203
8.4401	0.6736	0.2680	9.6526
8.4451	0.6790	0.2632	9.6059
8.4501	0.6736	0.2351	9.6382
8.4551	0.6622	0.2578	9.6101
8.4601	0.6718	0.2560	9.6083
8.4651	0.6736	0.2548	9.6376
8.4701	0.6742	0.2710	9.6382
8.4751	0.6873	0.2447	9.6317
8.4801	0.6873	0.2297	9.6424
8.4851	0.7011	0.2518	9.6442
8.4901	0.6736	0.2590	9.6418
8.4951	0.6407	0.2483	9.6113
8.5001	0.6694	0.2489	9.6586
8.5051	0.6664	0.2441	9.5994
8.5101	0.7059	0.2614	9.7005
8.5151	0.7029	0.2620	9.6544
8.5201	0.7029	0.2195	9.6305
8.5251	0.6927	0.2835	9.6203
8.5301	0.6664	0.2453	9.6323
8.5351	0.6664	0.2692	9.5988
8.5401	0.6604	0.2554	9.6562
8.5451	0.6718	0.2770	9.6400
8.5501	0.6867	0.2740	9.6281
8.5551	0.6963	0.2554	9.6442
8.5601	0.6526	0.2662	9.6394
8.5651	0.6634	0.2632	9.6394
8.5701	0.6730	0.2512	9.6382
8.5751	0.6802	0.2572	9.6364
8.5801	0.7017	0.2423	9.6065
8.5851	0.6628	0.2483	9.6436
8.5901	0.6843	0.2644	9.6472
8.5951	0.6784	0.2656	9.6107
8.6001	0.6957	0.2572	9.6251
8.6051	0.6927	0.2566	9.6562
8.6101	0.7017	0.2381	9.6221
8.6151	0.6855	0.2489	9.6568
8.6201	0.6760	0.2590	9.6191
8.6251	0.6706	0.2632	9.6101
8.6301	0.6814	0.2477	9.6568
8.6351	0.7005	0.2800	9.6610
8.6401	0.6490	0.2477	9.6215
8.6451	0.6915	0.2602	9.6191
8.6501	0.6855	0.2524	9.6125
8.6552	0.6610	0.2614	9.6442
8.6602	0.6849	0.2423	9.6370
8.6652	0.7023	0.2722	9.5569
8.6702	0.6730	0.2518	9.7884
8.6752	0.6628	0.2620	9.6634
8.6802	0.6993	0.2686	9.6478
8.6852	0.6969	0.2489	9.6634
8.6902	0.6670	0.2818	9.6335
8.6952	0.6921	0.2506	9.6245
8.7002	0.6742	0.2393	9.6293
8.7052	0.6778	0.2662	9.6358
8.7102	0.6718	0.2536	9.6191
8.7152	0.6820	0.2423	9.6311
8.7202	0.7077	0.2656	9.6424
8.7252	0.6634	0.2614	9.6550
8.7302	0.6652	0.2471	9.5820
8.7352	0.6736	0.2477	9.7914
8.7402	0.6843	0.2471	9.6622
8.7452	0.6885	0.2728	9.6191
8.7502	0.6682	0.2345	9.6251
8.7552	0.6843	0.2746	9.6394
8.7602	0.6520	0.2686	9.6424
8.7652	0.6556	0.2584	9.6424
8.7702	0.6808	0.2584	9.5988
8.7752	0.6712	0.2357	9.6221
8.7802	0.6688	0.2716	9.6490
8.7852	0.6897	0.2752	9.6305
8.7902	0.6730	0.2441	9.5922
8.7952	0.6772	0.2405	9.6155
8.8002	0.6664	0.2692	9.6514
8.8052	0.6443	0.2566	9.5868
8.8102	0.6963	0.2506	9.6352
8.8152	0.6784	0.2740	9.6101
8.8202	0.6772	0.2321	9.6789
8.8252	0.6945	0.2608	9.7920
8.8302	0.6586	0.2674	9.5641
8.8352	0.6879	0.2548	9.6035
8.8402	0.6802	0.2471	9.6161
8.8452	0.7119	0.2506	9.6023
8.8502	0.6861	0.2668	9.6125
8.8552	0.6772	0.2644	9.6191
8.8602	0.6814	0.2614	9.6478
8.8652	0.6682	0.2608	9.6131
8.8702	0.7196	0.2489	9.6484
8.8752	0.6796	0.2590	9.6179
8.8802	0.6604	0.2800	9.6257
8.8852	0.6796	0.2806	9.5892
8.8902	0.6724	0.2758	9.6012
8.8952	0.6706	0.2644	9.6574
8.9002	0.6849	0.2435	9.6442
8.9052	0.6820	0.2393	9.6574
8.9102	0.6772	0.2453	9.6155
8.9152	0.6706	0.2465	9.6197
8.9202	0.6951	0.2530	9.6095
8.9252	0.6903	0.2614	9.6257
8.9302	0.6975	0.2483	9.6478
8.9352	0.6538	0.2584	9.5958
8.9402	0.6736	0.2542	9.6448
8.9452	0.6568	0.2596	9.6335
8.9502	0.6664	0.2471	9.6586
8.9552	0.6772	0.2393	9.6221
8.9602	0.6873	0.2411	9.6454
8.9652	0.6885	0.2387	9.6341
8.9702	0.6742	0.2524	9.6364
8.9752	0.6855	0.2578	9.6017
8.9802	0.6837	0.2638	9.6418
8.9852	0.7226	0.2489	9.6311
8.9902	0.6873	0.2405	9.5862
8.9952	0.6867	0.2566	9.6035
9.0002	0.6742	0.2393	9.6215
9.0052	0.7125	0.2363	9.6245
9.0102	0.7041	0.2650	9.5892
9.0152	0.6580	0.2542	9.6652
9.0202	0.6778	0.2596	9.6275
9.0252	0.6724	0.2459	9.5874
9.0302	0.6706	0.2590	9.7854
9.0352	0.6742	0.2429	9.6329
9.0402	0.6658	0.2489	9.6125
9.0452	0.6676	0.2698	9.6562
9.0502	0.6867	0.2524	9.5790
9.0552	0.6873	0.2369	9.6203
9.0602	0.6724	0.2662	9.6484
9.0652	0.6532	0.2548	9.6287
9.0702	0.6802	0.2937	9.6430
9.0752	0.7220	0.2578	9.6460
9.0802	0.6921	0.2393	9.6017
9.0852	0.6682	0.2489	9.5958
9.0902	0.6748	0.2578	9.6245
9.0952	0.6814	0.2542	9.6095
9.1002	0.6604	0.2758	9.6245
9.1052	0.6993	0.2483	9.6251
9.1102	0.6676	0.2590	9.6341
9.1152	0.6879	0.2548	9.6137
9.1202	0.6790	0.2638	9.6065
9.1252	0.6820	0.2512	9.6376
9.1302	0.6646	0.2530	9.6574
9.1352	0.6975	0.2530	9.6544
9.1402	0.6790	0.2536	9.6472
9.1452	0.6766	0.2794	9.6346
9.1502	0.6909	0.2572	9.6520
9.1552	0.6814	0.2429	9.6382
9.1602	0.6688	0.2596	9.6000
9.1652	0.6897	0.2608	9.6299
9.1702	0.6885	0.2483	9.6341
9.1752	0.6963	0.2530	9.6095
9.1802	0.6963	0.2441	9.6496
9.1852	0.6891	0.2483	9.6287
9.1902	0.6449	0.2734	9.6173
9.1952	0.6820	0.2560	9.6173
9.2002	0.6873	0.2806	9.6227
9.2052	0.6598	0.2273	9.6454
9.2102	0.6903	0.2578	9.6364
9.2152	0.6664	0.2632	9.5557
9.2202	0.6927	0.2758	9.6137
9.2252	0.6562	0.2614	9.6137
9.2302	0.6831	0.2506	9.6125
9.2352	0.6945	0.2638	9.6370
9.2402	0.6933	0.2650	9.5976
9.2452	0.6694	0.2542	9.6472
9.2502	0.6682	0.2656	9.6287
9.2552	0.6562	0.2465	9.6023
9.2602	0.6903	0.2554	9.6652
9.2652	0.6718	0.2321	9.6335
9.2702	0.6987	0.2560	9.6508
9.2752	0.6975	0.2710	9.6448
9.2802	0.6945	0.2728	9.6000
9.2852	0.6736	0.2578	9.6317
9.2902	0.7071	0.2608	9.6532
9.2952	0.6688	0.2674	9.6592
9.3002	0.6604	0.2572	9.6245
9.3052	0.6873	0.2758	9.6053
9.3102	0.6987	0.2560	9.6191
9.3152	0.6514	0.2572	9.6376
9.3202	0.6957	0.2632	9.6717
9.3252	0.6658	0.2530	9.6149
9.3302	0.6676	0.2566	9.6412
9.3352	0.7047	0.2357	9.6442
9.3402	0.6724	0.2728	9.6257
9.3452	0.6903	0.2471	9.7005
9.3502	0.6754	0.2596	9.6089
9.3552	0.6963	0.2578	9.6317
9.3602	0.6778	0.2512	9.6161
9.3652	0.6814	0.2566	9.6113
9.3702	0.6837	0.2405	9.6855
9.3752	0.7011	0.2459	9.6203
9.3802	0.6682	0.2722	9.6562
9.3852	0.6831	0.2345	9.6687
9.3902	0.6778	0.2644	9.6119
9.3952	0.6544	0.2674	9.6221
9.4002	0.6748	0.2686	9.5976
9.4052	0.6999	0.2453	9.6729
9.4102	0.6676	0.2566	9.6670
9.4152	0.6825	0.2536	9.7734
9.4202	0.6616	0.2441	9.6131
9.4252	0.6784	0.2572	9.6341
9.4302	0.6825	0.2602	9.6041
9.4352	0.6957	0.2548	9.6418
9.4402	0.6945	0.2524	9.6514
9.4452	0.6526	0.2590	9.6209
9.4502	0.6754	0.2459	9.6640
9.4552	0.6550	0.2638	9.6107
9.4602	0.6885	0.2632	9.6125
9.4652	0.6837	0.2351	9.6526
9.4702	0.6831	0.2788	9.6592
9.4752	0.6855	0.2530	9.6526
9.4802	0.6712	0.2710	9.6119
9.4852	0.7166	0.2291	9.6382
9.4902	0.6730	0.2614	9.5958
9.4952	0.6658	0.2776	9.6460
9.5002	0.6754	0.2710	9.6173
9.5052	0.6706	0.2524	9.6119
9.5102	0.6802	0.2381	9.6364
9.5152	0.6766	0.2626	9.6257
9.5202	0.6808	0.2602	9.6341
9.5252	0.6514	0.2495	9.6544
9.5302	0.6909	0.2465	9.6173
9.5352	0.7023	0.2572	9.6137
9.5402	0.6849	0.2650	9.6257
9.5452	0.6951	0.2465	9.6472
9.5502	0.6479	0.2578	9.5946
9.5552	0.6969	0.2530	9.6239
9.5602	0.6712	0.2578	9.6538
9.5652	0.6730	0.2483	9.6526
9.5702	0.6616	0.2644	9.6358
9.5752	0.6640	0.2393	9.5736
9.5802	0.6814	0.2548	9.6203
9.5852	0.6652	0.2512	9.6275
9.5902	0.6873	0.2423	9.6544
9.5952	0.6634	0.2674	9.8004
9.6002	0.6957	0.2770	9.6149
9.6052	0.6790	0.2524	9.6939
9.6102	0.6879	0.2536	9.6448
9.6152	0.7250	0.2722	9.6287
9.6202	0.7017	0.2572	9.6197
9.6252	0.6808	0.2518	9.6221
9.6302	0.6652	0.2441	9.6281
9.6352	0.6766	0.2518	9.6149
9.6402	0.6700	0.2572	9.6299
9.6452	0.6825	0.2632	9.5641
9.6502	0.6610	0.2770	9.6526
9.6552	0.6724	0.2614	9.6305
9.6602	0.6939	0.2596	9.6173
9.6652	0.6808	0.2279	9.6915
9.6702	0.6712	0.2477	9.5724
9.6752	0.7035	0.2602	9.6670
9.6802	0.6814	0.2483	9.6400
9.6852	0.6957	0.2387	9.6113
9.6902	0.6760	0.2572	9.6418
9.6952	0.6873	0.2614	9.6364
9.7002	0.6909	0.2471	9.6179
9.7052	0.6640	0.2656	9.6017
9.7102	0.6939	0.2375	9.7938
9.7152	0.7047	0.2524	9.6161
9.7202	0.6610	0.2560	9.5958
9.7252	0.6634	0.2518	9.6352
9.7302	0.6802	0.2518	9.6179
9.7352	0.6772	0.2716	9.6628
9.7402	0.7166	0.2566	9.6251
9.7452	0.6706	0.2740	9.6083
9.7502	0.6855	0.2530	9.5994
9.7552	0.7155	0.2369	9.6376
9.7602	0.6855	0.2560	9.6335
9.7652	0.6849	0.2500	9.6341
9.7702	0.6796	0.2554	9.6394
9.7752	0.6951	0.2584	9.6341
9.7802	0.6849	0.2381	9.6071
9.7852	0.6754	0.2644	9.6616
9.7902	0.6754	0.2512	9.6424
9.7952	0.6664	0.2459	9.5862
9.8002	0.6814	0.2447	9.6185
9.8052	0.6760	0.2560	9.6418
9.8102	0.6855	0.2662	9.6376
9.8152	0.6700	0.2566	9.6185
9.8202	0.6790	0.2435	9.6203
9.8252	0.6957	0.2399	9.6406
9.8302	0.6754	0.2740	9.5850
9.8352	0.6634	0.2656	9.6089
9.8402	0.6652	0.2483	9.6059
9.8452	0.6999	0.2471	9.6275
9.8502	0.6784	0.2500	9.6927
9.8552	0.6909	0.2632	9.6442
9.8602	0.6526	0.2477	9.5892
9.8652	0.6790	0.2638	9.6370
9.8702	0.6837	0.2536	9.6239
9.8752	0.6760	0.2518	9.5994
9.8802	0.6730	0.2608	9.6137
9.8852	0.6867	0.2626	9.6472
9.8902	0.6556	0.2441	9.7908
9.8952	0.7107	0.2429	9.6323
9.9002	0.6658	0.2441	9.6305
9.9052	0.6622	0.2417	9.6568
9.9102	0.6712	0.2554	9.5976
9.9152	0.6760	0.2752	9.6299
9.9202	0.6778	0.2704	9.6508
9.9252	0.6873	0.2572	9.6143
9.9302	0.6849	0.2692	9.6568
9.9352	0.6760	0.2656	9.6717
9.9402	0.6622	0.2465	9.6125
9.9452	0.6772	0.2692	9.6233
9.9502	0.6897	0.2560	9.6065
9.9552	0.6658	0.2489	9.6346
9.9602	0.7083	0.2716	9.6221
9.9652	0.6748	0.2327	9.6023
9.9702	0.6766	0.2459	9.6442
9.9752	0.6957	0.2704	9.6257
9.9802	0.6825	0.2746	9.6245
9.9852	0.6784	0.2506	9.6789
9.9902	0.6897	0.2572	9.6215
9.9952	0.6963	0.2530	9.6346
10.0002	0.6760	0.2656	9.6185
10.0052	0.6742	0.2656	9.6317
10.0102	0.6622	0.2554	9.6879
10.0152	0.6736	0.2518	9.6855
10.0202	0.6808	0.2506	9.6017
10.0252	0.6951	0.2530	9.6436
10.0302	0.6670	0.2435	9.6257
10.0352	0.6760	0.2584	9.5982
10.0402	0.6748	0.2608	9.6556
10.0452	0.6532	0.2405	9.6137
10.0502	0.6479	0.2465	9.5874
10.0552	0.6676	0.2734	9.6358
10.0602	0.6670	0.2381	9.6047
10.0652	0.6730	0.2441	9.6227
10.0702	0.6843	0.2614	9.6233
10.0752	0.6897	0.2560	9.5796
10.0802	0.6784	0.2560	9.5778
10.0852	0.6574	0.2782	9.6406
10.0902	0.6855	0.2656	9.6089
10.0952	0.7125	0.2650	9.6227
10.1002	0.6592	0.2638	9.6089
10.1052	0.6568	0.2680	9.6711
10.1102	0.6802	0.2518	9.6101
10.1152	0.7208	0.2590	9.6616
10.1202	0.6670	0.2674	9.6299
10.1252	0.6694	0.2536	9.6406
10.1302	0.6766	0.2758	9.6215
10.1352	0.6915	0.2548	9.6155
10.1402	0.6604	0.2459	9.6562
10.1452	0.6951	0.2495	9.5659
10.1502	0.6772	0.2560	9.6430
10.1552	0.6802	0.2829	9.6143
10.1602	0.6915	0.2536	9.6382
10.1652	0.6652	0.2572	9.6239
10.1702	0.6616	0.2483	9.6095
10.1752	0.6999	0.2500	9.6071
10.1802	0.6030	0.2578	9.6149
10.1852	0.6837	0.2459	9.7734
10.1902	0.7011	0.2536	9.6173
10.1952	0.6784	0.2668	9.6221
10.2002	0.6688	0.2656	9.6676
10.2052	0.6951	0.2716	9.6179
10.2102	0.6634	0.2441	9.6155
10.2152	0.6556	0.2656	9.6436
10.2202	0.6873	0.2459	9.6095
10.2252	0.6951	0.2518	9.6364
10.2302	0.7023	0.2459	9.6442
10.2352	0.6831	0.2572	9.6006
10.2402	0.6891	0.2758	9.6341
10.2452	0.6658	0.2542	9.6628
10.2502	0.6790	0.2375	9.6550
10.2552	0.6891	0.2411	9.6376
10.2602	0.6688	0.2441	9.6239
10.2652	0.6796	0.2465	9.6161
10.2702	0.6897	0.2530	9.6646
10.2752	0.6993	0.2536	9.6083
10.2802	0.6724	0.2530	9.6071
10.2852	0.6814	0.2596	9.6424
10.2902	0.6945	0.2566	9.5892
10.2952	0.6718	0.2608	9.6185
10.3002	0.6993	0.2770	9.7842
10.3052	0.6790	0.2530	9.6149
10.3102	0.6790	0.2608	9.6317
10.3152	0.6724	0.2650	9.6179
10.3202	0.6694	0.2411	9.6197
10.3252	0.6778	0.2387	9.6460
10.3302	0.6873	0.2662	9.6239
10.3352	0.6825	0.2506	9.6071
10.3402	0.6706	0.2578	9.6113
10.3452	0.6885	0.2650	9.6538
10.3502	0.6939	0.2453	9.6508
10.3552	0.7017	0.2345	9.6394
10.3602	0.6951	0.2602	9.6095
10.3652	0.6831	0.2483	9.6299
10.3702	0.6772	0.2548	9.6275
10.3752	0.6646	0.2387	9.6346
10.3802	0.6981	0.2626	9.6221
10.3852	0.6754	0.2584	9.6269
10.3902	0.6640	0.2512	9.6227
10.3952	0.6586	0.2560	9.6035
10.4002	0.6706	0.2512	9.6478
10.4052	0.6921	0.2656	9.6083
10.4102	0.6772	0.2405	9.5946
10.4152	0.6622	0.2710	9.6293
10.4202	0.6508	0.2698	9.5952
10.4252	0.6927	0.2500	9.6107
10.4302	0.6622	0.2596	9.6281
10.4352	0.6796	0.2560	9.6287
10.4402	0.6682	0.2369	9.6538
10.4452	0.7059	0.2333	9.6119
10.4502	0.6532	0.2662	9.6197
10.4552	0.6748	0.2536	9.6017
10.4602	0.7023	0.2136	9.6580
10.4652	0.6772	0.2405	9.6083
10.4702	0.6814	0.2554	9.6454
10.4752	0.6353	0.2524	9.5868
10.4802	0.6820	0.2548	9.7573
10.4852	0.7041	0.2716	9.6735
10.4902	0.6760	0.2548	9.6035
10.4952	0.6634	0.2829	9.6478
10.5002	0.7137	0.2512	9.5814
10.5052	0.6993	0.2710	9.6269
10.5102	0.6987	0.2512	9.6275
10.5152	0.6652	0.2291	9.6299
10.5202	0.6820	0.2752	9.6508
10.5252	0.6891	0.2495	9.6167
10.5302	0.6831	0.2399	9.6263
10.5352	0.6718	0.2489	9.6047
10.5402	0.6706	0.2447	9.6335
10.5452	0.6820	0.2680	9.6388
10.5502	0.6825	0.2399	9.6173
10.5552	0.6825	0.2524	9.6628
10.5602	0.6975	0.2536	9.6358
10.5652	0.6736	0.2327	9.5778
10.5702	0.6760	0.2465	9.6281
10.5752	0.6580	0.2518	9.6167
10.5802	0.6814	0.2183	9.6777
10.5852	0.6975	0.2590	9.6143
10.5902	0.6885	0.2333	9.5976
10.5952	0.6616	0.2590	9.5024
10.6002	0.6748	0.2608	9.6215
10.6052	0.6772	0.2303	9.6305
10.6102	0.6760	0.2578	9.6478
10.6152	0.6861	0.2566	9.6119
10.6202	0.6903	0.2638	9.6370
10.6252	0.6562	0.2441	9.6323
10.6302	0.6760	0.2638	9.6233
10.6352	0.6682	0.2632	9.6442
10.6402	0.6921	0.2638	9.6610
10.6452	0.6634	0.2483	9.6029
10.6502	0.6748	0.2441	9.6329
10.6552	0.7017	0.2602	9.6406
10.6602	0.6915	0.2680	9.6071
10.6652	0.6855	0.2423	9.6783
10.6702	0.6778	0.2417	9.6251
10.6752	0.6885	0.2608	9.6424
10.6802	0.6987	0.2518	9.6323
10.6852	0.6873	0.2572	9.6424
10.6902	0.6682	0.2321	9.6586
10.6952	0.6885	0.2495	9.6299
10.7002	0.7137	0.2566	9.6317
10.7052	0.6425	0.2656	9.6095
10.7102	0.6808	0.2483	9.6329
10.7152	0.6867	0.2518	9.6568
10.7202	0.6760	0.2435	9.6652
10.7252	0.6873	0.2477	9.6155
10.7302	0.6760	0.2536	9.6059
10.7352	0.6658	0.2465	9.6394
10.7402	0.7035	0.2542	9.6221
10.7452	0.6891	0.2620	9.6209
10.7502	0.6730	0.2255	9.6376
10.7552	0.6885	0.2411	9.6478
10.7602	0.6885	0.2506	9.6341
10.7652	0.6646	0.2590	9.6305
10.7702	0.6808	0.2590	9.6317
10.7752	0.6820	0.2602	9.4953
10.7802	0.6676	0.2225	9.6185
10.7852	0.6688	0.2566	9.5916
10.7902	0.6772	0.2500	9.6203
10.7952	0.6981	0.2578	9.6317
10.8002	0.6879	0.2500	9.6358
10.8052	0.6808	0.2608	9.6221
10.8102	0.7029	0.2548	9.6484
10.8152	0.6825	0.2453	9.6029
10.8202	0.6610	0.2339	9.6909
10.8252	0.6652	0.2554	9.6418
10.8302	0.6831	0.2602	9.5898
10.8352	0.6831	0.2506	9.6101
10.8402	0.6915	0.2459	9.6370
10.8452	0.6927	0.2423	9.6311
10.8502	0.6879	0.2500	9.6376
10.8552	0.7101	0.2620	9.6388
10.8602	0.6431	0.2650	9.5760
10.8652	0.6867	0.2381	9.6239
10.8702	0.6951	0.2770	9.6269
10.8752	0.6837	0.2381	9.6412
10.8802	0.6915	0.2608	9.6562
10.8852	0.6754	0.2632	9.5473
10.8902	0.6873	0.2465	9.6430
10.8952	0.6742	0.2459	9.6317
10.9002	0.6658	0.2423	9.6430
10.9052	0.6790	0.2500	9.6430
10.9102	0.6742	0.2620	9.6466
10.9152	0.6855	0.2465	9.6610
10.9202	0.6718	0.2542	9.6167
10.9252	0.6945	0.2506	9.6191
10.9302	0.7053	0.2542	9.6179
10.9352	0.6879	0.2530	9.6448
10.9402	0.6736	0.2752	9.6173
10.9452	0.6843	0.2524	9.6478
10.9502	0.6903	0.2321	9.6227
10.9552	0.6802	0.2692	9.6071
10.9602	0.7328	0.2650	9.6580
10.9652	0.7011	0.2554	9.6580
10.9702	0.6897	0.2614	9.6466
10.9752	0.6682	0.2423	9.6460
10.9802	0.6634	0.2506	9.7878
10.9852	0.6945	0.2853	9.6652
10.9902	0.6592	0.2369	9.6508
10.9952	0.6772	0.2506	9.6364
11.0002	0.6544	0.2782	9.6502
11.0052	0.7005	0.2740	9.6676
11.0102	0.6808	0.2387	9.6233
11.0152	0.6760	0.2453	9.6568
11.0202	0.6873	0.2644	9.6382
11.0252	0.6658	0.2500	9.6430
11.0302	0.7166	0.2417	9.6628
11.0352	0.6927	0.2590	9.5892
11.0402	0.6843	0.2465	9.6825
11.0452	0.6808	0.2483	9.7920
11.0502	0.6766	0.2782	9.6119
11.0552	0.6724	0.2483	9.7016
11.0602	0.6814	0.2500	9.6131
11.0652	0.6802	0.2614	9.5922
11.0702	0.6790	0.2357	9.7908
11.0752	0.6885	0.2620	9.6119
11.0802	0.6987	0.2632	9.6275
11.0852	0.6999	0.2614	9.6006
11.0902	0.6897	0.2716	9.6143
11.0952	0.7035	0.2662	9.6029
11.1002	0.6455	0.2680	9.6101
11.1052	0.6718	0.2704	9.6006
11.1102	0.6849	0.2734	9.6173
11.1152	0.6694	0.2405	9.6933
11.1202	0.7053	0.2626	9.6137
11.1252	0.6999	0.2548	9.6323
11.1302	0.6664	0.2506	9.6514
11.1352	0.6688	0.2566	9.6125
11.1402	0.6652	0.2381	9.6604
11.1452	0.6879	0.2447	9.6083
11.1502	0.6652	0.2411	9.6143
11.1552	0.6921	0.2375	9.6346
11.1602	0.6927	0.2524	9.6412
11.1652	0.6658	0.2680	9.6239
11.1702	0.6927	0.2662	9.6323
11.1752	0.6778	0.2483	9.5838
11.1802	0.6706	0.2500	9.6604
11.1852	0.6706	0.2381	9.6293
11.1902	0.7238	0.2668	9.6299
11.1952	0.6933	0.2405	9.6263
11.2002	0.6562	0.2554	9.6299
11.2052	0.6909	0.2560	9.6089
11.2102	0.6963	0.2674	9.6574
11.2152	0.6514	0.2686	9.5964
11.2202	0.6879	0.2375	9.6311
11.2252	0.6562	0.2459	9.6119
11.2302	0.6951	0.2650	9.6424
11.2352	0.6628	0.2632	9.6119
11.2402	0.6688	0.2453	9.6550
11.2452	0.7053	0.2381	9.6430
11.2502	0.6873	0.2596	9.6281
11.2552	0.6688	0.2578	9.6179
11.2602	0.6796	0.2734	9.6131
11.2652	0.6742	0.2495	9.6329
11.2702	0.6694	0.2471	9.6203
11.2752	0.6814	0.2524	9.6287
11.2802	0.7011	0.2477	9.6472
11.2852	0.6425	0.2578	9.6448
11.2902	0.6712	0.2518	9.6179
11.2952	0.6861	0.2518	9.6299
11.3002	0.6808	0.2590	9.6203
11.3052	0.6652	0.2644	9.5982
11.3102	0.6927	0.2740	9.6119
11.3152	0.6921	0.2722	9.6239
11.3202	0.6341	0.2554	9.5958
11.3252	0.6730	0.2495	9.6616
11.3302	0.6742	0.2333	9.6191
11.3352	0.6556	0.2584	9.6759
11.3402	0.6718	0.2530	9.7956
11.3452	0.6975	0.2524	9.6065
11.3502	0.6754	0.2518	9.5958
11.3552	0.6568	0.2447	9.6137
11.3602	0.6843	0.2495	9.6478
11.3652	0.6760	0.2405	9.4989
11.3702	0.6724	0.2506	9.6317
11.3752	0.6831	0.2542	9.6699
11.3802	0.7089	0.2626	9.6341
11.3852	0.6921	0.2518	9.6065
11.3902	0.6778	0.2548	9.6514
11.3952	0.6861	0.2560	9.6245
11.4002	0.6879	0.2243	9.6251
11.4052	0.6766	0.2512	9.6400
11.4102	0.6784	0.2608	9.5988
11.4152	0.6849	0.2668	9.6502
11.4202	0.6748	0.2495	9.6221
11.4252	0.6706	0.2596	9.6197
11.4302	0.6730	0.2566	9.6149
11.4352	0.6772	0.2698	9.5952
11.4402	0.6861	0.2471	9.6251
11.4452	0.6496	0.2536	9.6394
11.4502	0.7184	0.2578	9.6556
11.4552	0.6825	0.2740	9.6251
11.4602	0.6455	0.2495	9.6346
11.4652	0.6802	0.2716	9.6053
11.4702	0.6706	0.2465	9.6227
11.4752	0.6837	0.2495	9.6137
11.4802	0.6754	0.2728	9.5964
11.4852	0.6598	0.2435	9.6083
11.4902	0.6538	0.2530	9.6759
11.4952	0.6921	0.2465	9.6047
11.5002	0.6574	0.2752	9.6113
11.5052	0.6628	0.2483	9.6191
11.5102	0.7178	0.2578	9.6484
11.5152	0.6688	0.2435	9.6520
11.5202	0.6718	0.2566	9.6215
11.5252	0.6867	0.2536	9.6245
11.5302	0.6879	0.2506	9.6305
11.5352	0.6550	0.2536	9.6364
11.5402	0.6778	0.2572	9.6137
11.5452	0.6730	0.2566	9.6341
11.5502	0.6951	0.2447	9.6293
11.5552	0.6951	0.2590	9.6006
11.5602	0.7023	0.2315	9.6215
11.5652	0.6610	0.2447	9.6215
11.5702	0.6951	0.2512	9.6406
11.5752	0.6951	0.2489	9.6149
11.5802	0.6742	0.2453	9.6424
11.5852	0.6921	0.2620	9.6245
11.5902	0.7017	0.2357	9.6335
11.5952	0.6718	0.2662	9.6203
11.6002	0.6933	0.2566	9.6538
11.6052	0.6706	0.2794	9.6430
11.6102	0.6784	0.2554	9.6394
11.6152	0.6897	0.2536	9.6287
11.6202	0.6861	0.2596	9.6502
11.6252	0.6754	0.2483	9.6412
11.6302	0.6508	0.2614	9.5862
11.6352	0.6592	0.2644	9.6161
11.6402	0.6604	0.2471	9.6305
11.6452	0.6951	0.2800	9.6448
11.6502	0.6945	0.2656	9.5814
11.6552	0.6748	0.2812	9.5940
11.6602	0.6814	0.2764	9.6173
11.6652	0.6760	0.2518	9.6418
11.6702	0.6754	0.2662	9.6006
11.6752	0.6843	0.2788	9.6460
11.6802	0.6873	0.2518	9.6430
11.6852	0.6939	0.2560	9.6418
11.6902	0.6562	0.2542	9.6065
11.6952	0.6837	0.2423	9.6263
11.7002	0.6550	0.2650	9.6107
11.7052	0.6790	0.2782	9.6430
11.7102	0.6706	0.2489	9.6269
11.7152	0.6802	0.2716	9.6077
11.7202	0.6796	0.2620	9.6239
11.7252	0.6987	0.2638	9.6083
11.7302	0.6712	0.2608	9.6424
11.7352	0.7065	0.2596	9.6299
11.7402	0.6837	0.2626	9.5964
11.7452	0.6586	0.2548	9.6006
11.7502	0.6724	0.2554	9.6335
11.7552	0.6778	0.2453	9.6293
11.7602	0.6993	0.2554	9.6400
11.7652	0.7107	0.2716	9.6412
11.7702	0.6915	0.2650	9.6376
11.7752	0.6796	0.2572	9.6622
11.7802	0.6951	0.2465	9.6245
11.7852	0.6760	0.2626	9.6185
11.7902	0.6628	0.2512	9.6550
11.7952	0.7023	0.2590	9.6161
11.8002	0.6688	0.2530	9.6472
11.8052	0.6634	0.2375	9.6747
11.8102	0.6676	0.2500	9.6580
11.8152	0.6951	0.2489	9.6167
11.8202	0.6712	0.2596	9.6119
11.8252	0.6987	0.2566	9.6233
11.8302	0.6849	0.2530	9.6191
11.8352	0.6622	0.2644	9.6556
11.8402	0.6825	0.2578	9.6424
11.8452	0.6742	0.2716	9.6311
11.8502	0.6670	0.2590	9.6448
11.8552	0.6837	0.2500	9.6173
11.8602	0.6891	0.2626	9.6598
11.8652	0.6772	0.2680	9.6107
11.8702	0.6855	0.2351	9.6424
11.8752	0.6646	0.2489	9.6311
11.8802	0.6861	0.2686	9.6179
11.8852	0.6939	0.2375	9.6939
11.8902	0.6772	0.2560	9.6646
11.8952	0.6999	0.2441	9.6562
11.9002	0.6682	0.2495	9.6532
11.9052	0.6945	0.2578	9.6502
11.9102	0.6670	0.2590	9.5970
11.9152	0.6825	0.2566	9.6532
11.9202	0.6814	0.2459	9.6741
11.9252	0.6879	0.2405	9.6556
11.9302	0.6634	0.2423	9.7812
11.9352	0.6652	0.2459	9.6382
11.9402	0.6754	0.2602	9.6335
11.9452	0.6736	0.2477	9.6388
11.9502	0.6652	0.2656	9.5928
11.9552	0.6855	0.2399	9.6317
11.9602	0.6616	0.2650	9.5976
11.9652	0.6760	0.2596	9.6107
11.9702	0.6700	0.2560	9.6406
11.9752	0.7107	0.2500	9.6382
11.9802	0.6748	0.2602	9.5754
11.9852	0.6867	0.2704	9.6053
11.9902	0.6736	0.2530	9.6382
11.9952	0.6664	0.2554	9.6149
12.0002	0.7149	0.2710	9.6436
12.0052	0.6592	0.2584	9.6065
12.0102	0.6855	0.2530	9.6251
12.0152	0.7005	0.2590	9.6305
12.0202	0.6820	0.2536	9.6245
12.0252	0.6843	0.2566	9.6388
12.0302	0.6855	0.2722	9.6173
12.0352	0.6981	0.2638	9.6508
12.0402	0.6592	0.2483	9.6442
12.0452	0.6502	0.2740	9.6095
12.0502	0.6736	0.2698	9.6765
12.0552	0.6867	0.2566	9.6825
12.0602	0.6837	0.2704	9.6251
12.0652	0.6610	0.2632	9.6442
12.0702	0.6748	0.2548	9.6341
12.0752	0.6700	0.2662	9.6191
12.0802	0.6646	0.2321	9.6616
12.0852	0.6808	0.2578	9.6215
12.0902	0.6873	0.2584	9.6299
12.0952	0.6664	0.2584	9.6323
12.1002	0.6999	0.2638	9.6012
12.1052	0.6676	0.2441	9.6664
12.1102	0.6646	0.2680	9.6346
12.1152	0.6921	0.2536	9.6412
12.1202	0.6502	0.2692	9.5982
12.1252	0.6437	0.2471	9.6185
12.1302	0.6933	0.2668	9.6077
12.1352	0.6502	0.2471	9.6221
12.1402	0.6700	0.2393	9.6550
12.1452	0.6664	0.2465	9.6287
12.1502	0.6676	0.2429	9.6263
12.1552	0.7029	0.2411	9.6412
12.1602	0.6999	0.2710	9.6191
12.1652	0.6712	0.2614	9.6741
12.1702	0.6754	0.2584	9.5778
12.1752	0.6975	0.2512	9.6400
12.1802	0.6706	0.2746	9.6185
12.1852	0.6748	0.2495	9.6454
12.1902	0.6849	0.2429	9.6376
12.1952	0.6939	0.2602	9.5844
12.2002	0.6820	0.2602	9.6293
12.2052	0.6981	0.2638	9.6424
12.2102	0.6646	0.2716	9.6293
12.2152	0.6676	0.2590	9.6179
12.2202	0.7549	0.2375	9.6203
12.2252	0.6694	0.2596	9.6215
12.2302	0.6628	0.2506	9.6813
12.2352	0.6909	0.2435	9.6000
12.2402	0.6634	0.2614	9.6215
12.2452	0.6820	0.2584	9.6412
12.2502	0.6867	0.2512	9.6041
12.2552	0.6927	0.2441	9.6317
12.2602	0.6736	0.2710	9.6544
12.2652	0.6927	0.2548	9.6592
12.2702	0.6867	0.2716	9.6801
12.2752	0.6820	0.2429	9.6664
12.2802	0.6766	0.2572	9.6341
12.2852	0.6915	0.2877	9.6388
12.2902	0.6748	0.2632	9.6149
12.2952	0.6891	0.2512	9.5928
12.3002	0.6724	0.2554	9.6843
12.3052	0.6879	0.2614	9.6233
12.3102	0.6802	0.2524	9.6550
12.3152	0.6820	0.2656	9.6376
12.3202	0.6891	0.2632	9.5928
12.3252	0.6634	0.2554	9.5880
12.3302	0.6945	0.2506	9.6161
12.3352	0.6622	0.2554	9.5844
12.3402	0.6837	0.2542	9.6227
12.3452	0.6604	0.2506	9.6173
12.3502	0.6831	0.2477	9.6370
12.3552	0.7017	0.2471	9.6329
12.3602	0.6796	0.2596	9.6299
12.3652	0.6790	0.2572	9.6305
12.3702	0.6688	0.2710	9.6245
12.3752	0.6496	0.2746	9.6604
12.3802	0.6694	0.2716	9.6311
12.3852	0.6419	0.2554	9.6029
12.3902	0.6873	0.2578	9.6209
12.3952	0.6754	0.2560	9.6239
12.4002	0.6969	0.2524	9.6083
12.4052	0.6748	0.2381	9.6382
12.4102	0.6736	0.2680	9.5820
12.4152	0.6640	0.2638	9.6311
12.4202	0.6760	0.2614	9.6502
12.4252	0.6879	0.2632	9.6059
12.4302	0.6945	0.2506	9.7806
12.4352	0.6766	0.2471	9.6664
12.4402	0.6855	0.2788	9.6520
12.4452	0.6646	0.2716	9.6341
12.4502	0.7113	0.2590	9.6640
12.4552	0.6825	0.2405	9.5916
12.4602	0.6855	0.2632	9.6191
12.4652	0.7035	0.2548	9.5712
12.4702	0.6820	0.2381	9.5964
12.4752	0.6640	0.2471	9.6221
12.4802	0.6754	0.2680	9.6263
12.4852	0.6957	0.2303	9.6317
12.4902	0.6843	0.2572	9.6496
12.4952	0.6700	0.2704	9.6215
12.5002	0.6849	0.2285	9.6269
12.5052	0.6849	0.2560	9.6676
12.5102	0.6939	0.2806	9.6424
12.5152	0.6502	0.2447	9.6239
12.5202	0.6873	0.2441	9.7597
12.5252	0.6981	0.2626	9.6035
12.5302	0.6706	0.2489	9.6358
12.5352	0.6778	0.2590	9.6179
12.5402	0.6688	0.2447	9.6406
12.5452	0.6790	0.2453	9.7842
12.5502	0.6347	0.2644	9.6089
12.5552	0.6939	0.2429	9.6125
12.5602	0.6700	0.2608	9.6203
12.5652	0.6897	0.2584	9.6191
12.5702	0.6670	0.2459	9.6287
12.5752	0.6843	0.2483	9.6687
12.5802	0.6670	0.2453	9.6388
12.5852	0.6610	0.2578	9.6269
12.5902	0.7095	0.2321	9.6472
12.5952	0.6975	0.2399	9.6083
12.6002	0.6951	0.2596	9.6287
12.6052	0.6754	0.2877	9.6059
12.6102	0.6796	0.2632	9.6143
12.6152	0.6670	0.2800	9.6478
12.6202	0.6825	0.2530	9.6442
12.6252	0.6586	0.2285	9.6388
12.6302	0.6730	0.2590	9.6335
12.6352	0.6754	0.2512	9.6418
12.6402	0.6712	0.2578	9.6239
12.6452	0.6664	0.2620	9.6376
12.6502	0.6861	0.2704	9.6418
12.6552	0.6550	0.2644	9.6317
12.6602	0.6616	0.2686	9.6089
12.6652	0.6544	0.2560	9.6053
12.6702	0.6963	0.2578	9.6921
12.6752	0.6664	0.2483	9.6191
12.6802	0.6742	0.2465	9.6418
12.6852	0.6700	0.2518	9.6143
12.6902	0.6796	0.2483	9.6364
12.6952	0.6461	0.2626	9.6089
12.7002	0.6915	0.2489	9.5970
12.7052	0.6802	0.2465	9.6335
0.0000	0.4175	0.6479	10.8628
0.0050	1.4764	-0.5862	9.1860
0.0100	-0.0096	-0.9428	9.6101
0.0150	0.1334	-0.3200	11.0661
0.0200	1.0235	0.0873	10.8245
0.0250	1.1695	0.3344	8.6991
0.0300	0.5037	1.0845	9.6125
0.0350	0.8267	-0.3918	7.2538
0.0400	0.3254	-0.4522	7.0666
0.0450	1.1761	1.0869	8.1230
0.0500	0.7011	0.4881	9.6412
0.0550	-0.1334	0.9918	11.0063
0.0600	2.0656	-2.1697	9.8213
0.0650	-0.1591	0.1143	9.7447
0.0700	1.3232	0.1914	9.5198
0.0750	0.2752	0.4857	10.3112
0.0800	-1.4153	-0.7143	11.2749
0.0850	2.6177	-0.9458	10.2885
0.0900	1.5547	0.5276	13.9004
0.0950	0.1633	0.8022	7.8167
0.1000	0.4074	0.7340	7.9567
0.1050	-0.0167	-0.3775	8.7691
0.1100	0.7980	-0.1567	7.5194
0.1150	-0.4008	1.3340	9.7202
0.1200	-0.0586	-0.9452	8.1978
0.1250	1.7946	1.1970	10.9351
0.1300	0.3906	0.7202	11.4484
0.1350	1.9250	0.0538	9.6179
0.1400	1.0780	0.1944	10.5613
0.1450	0.6359	0.3290	10.0666
0.1500	-0.1884	-0.2566	9.2961
0.1550	2.2887	0.0108	9.6795
0.1600	0.2213	1.1749	9.5120
0.1650	0.7531	-1.5583	10.8586
0.1700	1.2760	0.3362	11.4610
0.1750	1.1450	1.5571	9.3433
0.1800	0.7178	0.3709	10.0091
0.1850	-0.1113	-1.3986	11.3838
0.1900	1.7444	1.3687	6.8584
0.1950	0.1950	-0.3631	9.6185
0.2000	0.0275	0.4588	7.4297
0.2050	1.0403	-0.7340	9.0580
0.2100	0.2028	-1.5428	9.1567
0.2150	0.1866	-0.1519	10.1419
0.2200	1.0558	-1.1922	11.7577
0.2250	0.5946	0.0688	10.9716
0.2300	0.0359	1.1426	9.8685
0.2350	1.0409	0.1944	7.8927
0.2400	0.9230	0.7735	7.9926
0.2450	0.3308	0.5874	8.5256
0.2500	-0.1663	0.5468	8.7601
0.2550	0.9990	0.5432	10.1647
0.2600	-0.2363	0.2321	9.9206
0.2650	0.7430	0.8447	12.0107
0.2700	0.2931	1.2951	10.5738
0.2750	1.2323	-0.9840	9.3038
0.2800	1.9154	0.6054	10.2568
0.2850	1.2365	0.4947	8.3521
0.2900	0.2584	-1.4638	10.0199
0.2950	1.7515	1.8167	10.6462
0.3000	0.1478	-0.1352	7.6917
0.3050	0.5868	-0.3194	9.3547
0.3100	0.8614	1.0624	11.3174
0.3150	1.5164	-0.0574	9.3786
0.3200	0.8829	0.9003	9.3068
0.3250	0.3942	0.0694	10.5218
0.3300	1.0253	-0.0138	9.0957
0.3350	0.1645	0.5527	10.0043
0.3400	1.5135	-0.4229	10.1174
0.3450	1.2443	0.2052	9.3828
0.3500	0.1735	0.2919	9.7716
0.3550	0.5779	0.4253	10.1844
0.3600	0.1460	1.4261	9.6538
0.3650	1.6887	-0.7160	9.2440
0.3700	-0.6814	0.3362	9.1298
0.3750	2.0871	-1.0110	9.0813
0.3800	0.2949	1.0271	10.5176
0.3850	1.1647	1.3340	12.7686
0.3900	0.6377	-0.4098	7.7138
0.3950	0.5970	-0.5192	8.0560
0.4000	0.5174	0.8829	11.5345
0.4050	1.5655	-2.0488	9.4899
0.4100	-0.4630	-0.2650	8.4275
0.4150	1.2155	0.9870	10.8317
0.4200	1.1139	-0.3147	9.8333
0.4250	1.5314	2.2169	7.9878
0.4300	-0.3242	0.8249	10.0337
0.4350	0.5157	-1.8245	8.1864
0.4400	1.9723	0.3601	8.1762
0.4450	-0.8285	1.2790	11.0111
0.4500	-0.1316	-2.4586	9.7531
0.4550	0.9368	-0.1627	13.8998
0.4600	1.3292	0.2273	10.2448
0.4650	0.3410	1.2712	7.2245
0.4700	2.4951	0.2530	11.1816
0.4750	0.6120	0.4469	10.2436
0.4800	-0.5671	0.7854	10.8083
0.4850	-0.6981	0.9864	7.9525
0.4900	0.5157	-0.4624	9.7094
0.4950	0.2500	2.4365	7.7258
0.5000	0.9200	0.4427	8.2337
0.5050	-0.0126	1.2120	7.1736
0.5100	-0.2483	0.1836	8.9599
0.5150	0.3924	-0.9272	8.8169
0.5200	-0.3224	0.0873	8.5304
0.5250	0.1131	-0.7310	9.1645
0.5300	1.3388	0.5671	8.6279
0.5350	0.3147	0.9984	8.6392
0.5400	0.8979	-0.2495	9.1980
0.5450	0.8106	1.2233	9.4426
0.5500	0.6568	0.8399	10.6534
0.5550	1.5141	-0.2082	9.5264
0.5600	0.4839	1.1743	8.2103
0.5650	0.3930	0.5593	9.4049
0.5700	1.1826	-0.9511	10.2693
0.5750	0.3828	2.0985	10.2448
0.5800	0.8620	-0.1627	10.3788
0.5850	1.2526	-0.5031	9.4103
0.5900	0.7400	0.7358	8.8205
0.5950	1.6618	-0.5486	11.8899
0.6000	1.0193	0.6233	12.0669
0.6050	1.1503	1.9370	9.8147
0.6100	1.2108	0.8154	10.3752
0.6150	1.1725	0.7244	11.4322
0.6200	1.1216	-0.3805	8.6351
0.6250	1.5739	-0.3105	12.5383
0.6300	0.0042	1.6570	10.5643
0.6350	1.1515	-0.8106	7.7270
0.6400	-0.3721	0.3470	9.2943
0.6450	1.9418	-0.6778	11.3024
0.6500	0.4720	1.4142	9.6017
0.6550	0.6221	0.0855	8.9276
0.6600	0.6814	1.6235	11.2875
0.6650	0.5420	-0.0993	9.1663
0.6700	0.6670	0.6766	9.4797
0.6750	1.1611	-0.1095	9.4145
0.6800	1.3244	-0.3063	9.3966
0.6850	1.5996	-0.1322	9.7998
0.6900	-0.2788	0.7950	9.5862
0.6950	1.4979	-0.4654	8.6530
0.7000	0.2835	-0.0706	10.7641
0.7050	0.7418	-0.0927	9.3786
0.7100	0.3505	0.0066	10.3854
0.7150	0.6323	-0.6179	11.1020
0.7200	0.8853	0.0359	11.0117
0.7250	1.2024	0.6012	10.5475
0.7300	1.1456	0.3948	9.4642
0.7350	1.0104	0.3212	8.1828
0.7400	1.0564	1.2149	9.6538
0.7450	-0.4684	-1.0032	8.1152
0.7500	1.0917	0.4313	8.2313
0.7550	1.3777	0.5503	9.7453
0.7600	0.7489	0.0849	10.3375
0.7650	1.3944	1.0510	9.6281
0.7700	1.1725	0.1125	9.7573
0.7750	0.3159	0.4546	9.6807
0.7800	0.5874	-0.5456	8.9754
0.7850	0.1226	-0.0760	10.9818
0.7900	0.3117	-0.8004	9.4695
0.7950	1.2700	0.5366	8.5358
0.8000	-0.3781	-0.0915	9.8548
0.8050	1.8496	0.8674	8.9108
0.8100	0.3912	0.4295	9.5635
0.8150	-0.1370	0.0742	10.2502
0.8200	0.4582	0.6957	10.2837
0.8250	1.2251	0.2237	9.3284
0.8300	0.4977	-0.5539	10.0618
0.8350	1.0804	0.8339	10.9298
0.8400	0.5162	-0.1807	7.7198
0.8450	-0.3362	0.1501	9.3439
0.8500	0.0867	0.2841	10.0444
0.8550	0.6748	0.5408	10.2675
0.8600	0.8483	-0.5970	9.5042
0.8650	0.7759	0.1896	8.7936
0.8700	1.2479	0.1298	8.2989
0.8750	0.7573	1.9842	9.3140
0.8800	0.4229	-0.1573	9.9613
0.8850	0.7753	0.1412	10.6085
0.8900	0.8315	0.0269	10.0618
0.8950	0.7902	0.5043	10.1718
0.9000	0.6299	0.3182	9.5090
0.9050	1.3442	-0.0090	9.7346
0.9100	0.4947	1.0439	9.6574
0.9150	-0.1029	-0.1065	8.6219
0.9200	0.8752	1.8072	9.9918
0.9250	0.7513	0.2285	9.0424
0.9300	0.5707	0.8740	9.6861
0.9350	0.2770	-0.3661	10.3304
0.9400	1.1001	1.4004	8.5070
0.9450	0.6544	-0.4313	8.3048
0.9500	1.3507	0.2608	8.7966
0.9550	0.6975	0.6323	9.8440
0.9600	0.3840	0.4427	9.1968
0.9650	0.0730	0.0855	9.8464
0.9700	1.4937	-0.4319	10.2209
0.9750	0.7501	0.4229	10.1306
0.9800	1.8179	0.0066	12.0813
0.9850	1.7731	-0.4678	10.4279
0.9900	1.9256	1.0110	9.0454
0.9950	0.3769	1.1773	11.2701
1.0000	1.5224	-0.6203	11.0434
1.0050	0.5737	-0.2632	12.0951
1.0100	0.6688	-0.2572	11.0763
1.0150	-0.5384	-0.2219	11.2468
1.0200	0.6090	-0.0622	9.7292
1.0250	1.1892	0.3081	7.9872
1.0300	-0.1304	1.7127	8.8396
1.0350	0.4169	1.0534	9.5647
1.0400	0.1777	-0.7962	10.5732
1.0450	0.9751	0.3541	8.9228
1.0500	1.5236	-0.4654	10.4291
1.0550	-0.0275	-0.2644	9.7334
1.0600	0.3248	0.8405	8.8528
1.0650	1.7109	0.2764	10.5355
1.0700	0.3667	0.0718	9.0197
1.0750	-0.2136	-0.6544	7.6743
1.0800	1.5188	-0.4020	10.2203
1.0850	-0.4038	-1.3986	8.6578
1.0900	0.4905	0.3840	9.6329
1.0950	-1.3268	0.2937	11.4514
1.1000	1.8455	0.8985	9.7154
1.1050	1.2377	0.8148	8.5842
1.1100	0.1035	-0.3607	9.6388
1.1150	-0.0736	0.1585	6.4767
1.1200	0.4068	1.3280	8.4783
1.1250	-1.4010	1.0504	10.4835
1.1300	0.2417	-0.3511	10.3381
1.1350	0.7489	0.9266	8.6159
1.1400	1.0666	0.3212	9.8751
1.1450	-0.2812	-0.1783	11.1433
1.1500	0.6419	-0.2411	7.3746
1.1550	-0.7274	0.6012	7.5433
1.1600	0.0628	-0.5533	8.5130
1.1650	0.8752	0.6790	8.8965
1.1700	1.1276	0.5330	8.6004
1.1750	0.9799	1.0612	9.1352
1.1800	0.6102	1.5918	9.7812
1.1850	1.3824	0.4325	9.1746
1.1900	0.4744	0.2835	8.4191
1.1950	0.7256	0.4068	10.9286
1.2000	1.1910	-1.4082	9.8913
1.2050	0.3344	0.4600	8.7786
1.2100	-0.4654	0.9266	12.7884
1.2150	0.7358	-0.8429	10.0953
1.2200	1.5242	1.3394	9.1417
1.2250	0.3918	0.9446	10.4596
1.2300	1.3274	-1.5978	11.3359
1.2350	0.8680	-0.4971	10.2305
1.2400	0.1005	-0.0718	9.7495
1.2450	0.1537	-0.1926	10.9339
1.2500	0.4684	0.2764	10.3938
1.2550	1.3723	-0.8477	10.5266
1.2600	0.5061	-0.8279	10.7072
1.2650	1.1713	-0.5468	10.1784
1.2700	0.1454	0.7412	10.0815
1.2750	-0.1178	-0.1196	9.2566
1.2800	0.3111	0.7190	9.8213
1.2850	0.5850	-0.7143	9.9003
1.2900	0.5151	0.2231	9.2608
1.2950	1.6140	0.5635	9.5300
1.3000	0.7262	1.2622	8.8923
1.3050	-0.1454	1.1240	10.0175
1.3100	1.1354	-0.2919	10.4590
1.3150	0.0365	-0.5312	9.7746
1.3200	0.6455	0.0580	9.0466
1.3250	0.1161	1.1025	11.1756
1.3300	0.7627	-0.9984	8.2594
1.3350	0.5336	1.3633	9.6191
1.3400	0.6562	-0.0078	9.6197
1.3450	0.2207	0.8829	10.1784
1.3500	1.6935	-0.1501	8.7362
1.3550	0.5569	0.8841	9.5054
1.3600	0.7298	-0.2130	8.8043
1.3650	0.4804	-0.0030	9.5060
1.3700	0.4223	0.6263	9.2380
1.3750	-0.5258	0.2094	10.4913
1.3800	1.4435	-0.4187	8.2085
1.3850	0.6502	0.1525	8.6482
1.3900	0.1609	-0.0646	9.1022
1.3950	0.7830	0.1573	8.4137
1.4000	0.1490	-0.6024	9.4528
1.4050	0.8369	0.2847	8.1786
1.4100	1.5302	0.5791	9.6610
1.4150	0.8931	0.5844	9.7280
1.4200	0.6658	0.6185	10.1533
1.4250	0.1496	0.2142	10.1318
1.4300	0.7322	0.0873	10.0552
1.4350	0.0060	-0.0012	8.9730
1.4400	1.5996	0.0909	9.8225
1.4450	0.4618	0.3039	9.1782
1.4500	1.4925	0.3769	10.4667
1.4550	0.2650	0.4277	9.1346
1.4600	0.7495	0.5539	10.4667
1.4650	0.0317	-0.7484	8.6243
1.4700	1.4225	0.1089	8.5519
1.4750	0.5456	-0.7202	9.7686
1.4800	0.2704	-0.1914	10.2269
1.4850	0.5719	1.1970	10.3172
1.4900	0.0485	0.1585	10.6462
1.4950	0.9930	0.7908	10.6941
1.5000	0.1645	0.6849	8.3712
1.5050	0.6108	0.0215	9.7064
1.5100	0.8865	-0.8776	10.3334
1.5150	0.3972	1.8449	10.7228
1.5200	0.4289	-0.4481	8.1673
1.5250	0.9828	0.7083	10.5876
1.5300	1.2706	0.1777	11.2953
1.5350	0.0197	-0.5168	10.4560
1.5400	1.0917	-0.7992	10.9728
1.5450	-0.0586	0.9673	9.3272
1.5500	0.6060	-0.6132	9.5605
1.5550	-0.2381	0.2255	10.7946
1.5600	1.6134	-1.0044	8.8713
1.5650	0.1830	-0.6419	8.0727
1.5700	0.7633	0.2578	8.8085
1.5750	0.3912	0.9188	8.9575
1.5800	-0.1645	-0.8877	8.8360
1.5850	0.3858	-0.3494	12.1615
1.5900	0.2148	0.0885	9.8883
1.5950	0.5797	0.7555	8.1248
1.6000	0.0072	0.6138	11.0835
1.6050	1.1892	1.5123	9.2219
1.6100	-0.1023	0.6072	9.7190
1.6150	0.4307	-0.6921	10.4273
1.6200	0.6473	-0.8279	10.4877
1.6250	0.9051	0.5557	9.0819
1.6300	0.2698	1.2945	10.1934
1.6350	1.3914	-0.7549	8.6380
1.6400	0.1956	0.6138	9.9631
1.6450	-0.0622	0.5157	11.1224
1.6500	2.1015	-1.5703	9.4672
1.6550	0.2231	-0.2399	9.9170
1.6600	0.4469	-1.8915	10.8281
1.6650	0.4110	0.8171	10.6211
1.6700	0.4798	0.0162	9.7459
1.6750	-0.0191	-0.7358	10.3202
1.6800	1.8933	0.1310	10.9758
1.6850	0.5809	-0.1340	9.3098
1.6900	1.2526	0.6891	8.5824
1.6950	-0.5844	-0.0999	9.5826
1.7000	-0.5378	0.1454	9.6035
1.7050	-0.6628	-0.4792	8.3425
1.7100	0.5390	0.5779	10.4279
1.7150	2.1009	-0.0233	9.8554
1.7200	1.4285	1.7049	9.5324
1.7250	0.3236	1.3448	8.2462
1.7300	-0.1597	-0.6897	8.9455
1.7350	0.5354	0.5354	8.5716
1.7400	-0.5976	0.5438	8.2414
1.7450	1.2778	-1.1390	9.3553
1.7500	1.8054	0.5779	9.8404
1.7550	0.2249	0.6425	11.0715
1.7600	0.2818	-0.1633	10.5176
1.7650	0.4355	0.5330	10.1976
1.7700	0.8770	0.2542	9.0855
1.7750	1.4046	0.7220	9.9852
1.7800	2.0488	0.2423	9.8446
1.7850	0.2907	0.3685	9.6909
1.7900	0.5456	0.1166	8.9832
1.7950	0.8022	0.9655	9.0448
1.8000	0.0909	1.1234	9.6526
1.8050	1.7013	-0.3990	9.4031
1.8100	0.9589	0.1496	10.7802
1.8150	1.2132	-0.5922	10.2388
1.8200	0.2357	0.5162	9.9511
1.8250	0.5755	0.8530	9.5138
1.8300	1.3232	0.7669	9.0089
1.8350	0.8776	-0.2483	9.0131
1.8400	1.2688	0.8453	10.7491
1.8450	-0.1813	-0.6084	9.8213
1.8500	-0.4594	1.7934	9.9918
1.8550	0.8626	-0.1747	10.5553
1.8600	0.4522	0.6562	9.4133
1.8650	1.9340	-0.4325	10.6151
1.8700	0.7489	1.0570	9.0317
1.8750	1.6564	-0.4152	9.0484
1.8800	0.5486	0.2889	9.6843
1.8850	-0.2357	0.4409	9.2829
1.8900	0.8746	0.6401	10.0384
1.8950	0.6802	0.8159	9.1196
1.9000	1.2502	-0.4229	9.2099
1.9050	0.3182	1.2365	9.7968
1.9100	1.1611	-0.6969	9.9607
1.9150	-0.5276	1.6702	10.1324
1.9200	1.2006	-0.1908	9.7256
1.9250	0.5408	0.2560	9.8470
1.9300	1.7988	0.0132	8.5854
1.9350	0.5844	0.3517	10.3280
1.9400	1.3280	-0.3655	9.0460
1.9450	0.7484	0.3751	9.9565
1.9500	1.0660	0.9817	10.3046
1.9550	0.9356	-0.4702	9.3242
1.9600	0.8273	0.9212	9.7334
1.9650	1.0253	-0.9811	10.7383
1.9700	-0.3374	0.2495	10.1599
1.9750	0.4822	-0.4409	8.2947
1.9800	1.2538	0.6778	10.9597
1.9850	1.5613	-0.3123	10.5038
1.9900	1.8449	1.2173	9.0251
1.9950	0.5001	1.0851	10.0199
2.0000	0.3063	-0.7143	8.9300
2.0050	0.5982	0.4672	9.4648
2.0100	0.2614	0.4720	9.2045
2.0150	1.7563	-0.8847	9.0335
2.0200	0.9864	1.2239	8.6446
2.0250	1.3208	-0.1023	10.4494
2.0300	0.0778	0.6443	9.7238
2.0350	0.3787	0.1747	10.2478
2.0400	0.5390	0.5336	10.4596
2.0450	0.6395	-0.1328	9.7124
2.0500	1.7067	0.1436	8.7714
2.0550	0.9828	0.5713	9.5838
2.0600	1.0157	0.3930	8.8558
2.0650	0.6658	0.1675	8.9796
2.0700	-0.0867	0.9984	9.3966
2.0750	1.8975	-1.3860	9.5641
2.0800	1.2562	0.9499	10.1647
2.0850	0.0634	-0.0090	10.1784
2.0900	0.9858	-0.0909	8.4263
2.0950	1.1318	1.5170	7.8149
2.1000	0.4259	0.8207	10.5786
2.1050	1.3573	-0.4792	8.6392
2.1100	1.3178	0.8961	9.5742
2.1150	0.9529	-0.3296	8.9940
2.1200	-0.3494	0.2435	8.9282
2.1250	1.1605	0.0084	8.3784
2.1300	0.0520	0.7567	9.6323
2.1350	1.1378	0.0574	9.3511
2.1400	1.6833	1.6181	9.6753
2.1450	0.5168	0.3828	10.0522
2.1500	0.9069	0.1723	10.2544
2.1550	-1.3818	-0.2351	9.0418
2.1600	0.8171	0.1902	9.4067
2.1650	1.1623	0.5803	9.2955
2.1700	1.3884	0.4415	8.9910
2.1750	0.8273	0.9769	9.2769
2.1800	0.0604	-0.0610	8.5070
2.1850	0.2189	0.9260	8.6739
2.1900	0.0963	0.0084	10.1503
2.1950	1.5499	-0.0820	8.5878
2.2000	1.5858	0.6658	9.2159
2.2050	1.7874	0.1155	10.0707
2.2100	0.2961	1.5978	10.8107
2.2150	-0.7830	-0.2004	9.8105
2.2200	-0.0102	0.3434	9.3834
2.2250	1.0851	-0.7406	9.5084
2.2300	1.3609	0.2530	8.7003
2.2350	0.9745	0.0329	9.2249
2.2400	-0.1035	0.8710	9.6335
2.2450	-0.0443	1.1306	8.1338
2.2500	1.1898	1.9298	8.8797
2.2550	1.3890	-0.4337	10.3507
2.2600	0.7932	0.7220	10.5290
2.2650	1.1874	0.0843	9.6562
2.2700	0.3440	-0.7035	10.2293
2.2750	0.6173	0.0191	10.5936
2.2800	0.9320	0.2991	10.3986
2.2850	1.8754	-0.2435	8.8396
2.2900	1.5793	0.4169	9.6705
2.2950	0.6796	0.9141	11.5094
2.3000	0.6012	0.7119	9.9720
2.3050	-1.0146	-0.1041	10.3334
2.3100	1.0977	-0.2566	10.6007
2.3150	1.4399	-0.3571	9.3661
2.3200	1.2455	-0.3817	9.2069
2.3250	1.1713	-0.0658	11.2743
2.3300	0.7609	-0.4337	10.0450
2.3350	0.3482	0.5803	8.5567
2.3400	0.8608	0.3595	11.8462
2.3450	1.5547	1.0116	10.9040
2.3500	1.3220	-0.2381	8.3437
2.3550	0.0939	0.5916	11.6027
2.3600	0.9589	1.3495	8.8588
2.3650	-0.5515	0.4965	8.2779
2.3700	1.4925	0.1041	9.2153
2.3750	0.8213	1.6720	9.4713
2.3800	0.8363	-0.0808	8.9312
2.3850	-0.0700	0.0132	10.1629
2.3900	0.2076	2.0177	9.3373
2.3950	-0.4152	0.8632	8.1033
2.4000	1.2855	-1.2837	8.7583
2.4050	2.1852	2.9240	11.3042
2.4100	0.0915	-0.0933	9.7459
2.4150	0.8925	0.2160	10.1958
2.4200	0.0311	0.8327	9.1022
2.4250	-0.0473	0.2865	10.1952
2.4300	1.7360	-0.3230	9.6017
2.4350	1.3298	0.8602	10.0331
2.4400	2.0692	-0.6664	10.9507
2.4450	-0.4684	0.6975	9.9996
2.4500	1.1635	-0.1448	8.4030
2.4550	-0.3188	1.1480	10.6905
2.4600	0.7035	-1.1306	8.4819
2.4650	1.4614	0.4295	8.6769
2.4700	1.2335	-0.4397	9.0203
2.4750	0.2411	-0.3075	8.6075
2.4800	0.2477	0.7214	9.2010
2.4850	0.9721	0.8070	9.1130
2.4900	0.9667	0.3206	9.9302
2.4950	0.6526	0.1819	8.1308
2.5000	1.7348	-0.4265	10.9525
2.5050	0.0999	0.4415	9.6664
2.5100	0.9828	-0.1484	9.1112
2.5150	-0.0544	0.3805	10.0456
2.5200	1.1551	-0.0269	10.5140
2.5250	1.1468	0.2058	8.6709
2.5300	1.5188	0.1214	10.1294
2.5350	0.0383	-0.0473	8.5896
2.5400	0.0981	-0.0012	9.3230
2.5450	0.5725	-0.5683	10.0821
2.5500	1.3376	0.2070	11.3521
2.5550	1.9262	-0.5677	9.9840
2.5600	1.1426	0.3057	10.7916
2.5650	0.8883	0.4223	10.1353
2.5700	-0.1525	-0.3200	9.6418
2.5750	0.7071	0.9607	9.5347
2.5800	0.8728	0.0766	9.0993
2.5850	1.6732	0.0156	9.3792
2.5900	0.6939	1.0187	10.9184
2.5950	0.1992	0.7352	9.8626
2.6000	0.6395	-0.2219	11.2737
2.6050	0.5677	0.5186	11.7325
2.6100	1.0002	-0.6030	10.4614
2.6150	0.7675	-0.2710	8.6865
2.6200	1.1976	-0.0018	8.6464
2.6250	0.6102	1.1073	9.5072
2.6300	-0.7579	-0.2351	9.2823
2.6350	1.5266	1.2281	9.3523
2.6400	0.5019	0.7382	9.7028
2.6450	1.5541	0.2638	8.7978
2.6500	0.2692	-0.1585	10.6504
2.6550	-0.0502	0.4259	8.3479
2.6600	1.0995	0.1268	9.6442
2.6650	-0.7561	0.9135	9.7974
2.6700	1.7288	-0.0467	9.0281
2.6750	0.4504	0.4684	10.1497
2.6800	0.4241	-0.3386	8.7613
2.6850	-0.0718	0.5551	9.5682
2.6900	-0.7143	-0.0802	8.6560
2.6950	1.1749	0.4235	9.7268
2.7000	0.6897	0.9811	9.8231
2.7050	1.5649	0.6239	9.5096
2.7100	-0.3972	0.5671	9.6987
2.7150	0.3212	0.7615	9.1968
2.7200	-0.4427	0.2907	10.2430
2.7250	0.9817	0.0036	10.6935
2.7300	1.0744	-0.0634	9.2315
2.7350	1.1629	-0.5073	9.8339
2.7400	0.4714	0.2997	9.3308
2.7450	0.4804	0.0628	9.3128
2.7500	0.5868	0.4469	11.0685
2.7550	0.7501	-0.4750	9.9104
2.7600	1.1384	0.4080	9.2931
2.7650	1.0917	-0.7711	9.2183
2.7700	0.3918	0.3990	9.2273
2.7750	0.7914	0.5509	8.0357
2.7800	-0.0849	1.4740	10.2568
2.7850	1.3765	-0.7442	8.7032
2.7900	1.2969	0.6568	9.7322
2.7950	1.4907	-0.0736	10.5882
2.8000	0.4445	1.0343	11.4197
2.8050	-1.0337	-0.4546	8.9503
2.8100	0.6496	0.6568	10.6923
2.8150	0.6413	0.2925	9.8231
2.8200	1.7713	1.0289	9.5126
2.8250	1.0193	0.8411	10.2017
2.8300	1.0678	0.1681	10.3860
2.8350	0.4361	0.7645	10.7868
2.8400	1.3400	0.1621	11.4813
2.8450	1.3860	1.0080	9.2578
2.8500	1.1318	-0.2692	9.3523
2.8550	0.1340	-0.0903	10.1318
2.8600	0.3159	0.8417	8.6309
2.8650	-0.1376	0.6126	9.4851
2.8700	0.4672	-0.4175	10.0977
2.8750	0.3583	0.9553	9.2721
2.8800	0.6939	-0.4373	8.9090
2.8850	0.4343	-0.5366	9.6370
2.8900	0.5486	0.3577	9.5168
2.8950	-0.6383	0.4457	8.8767
2.9000	0.0784	-0.6748	9.4462
2.9050	1.3220	0.4899	8.6721
2.9100	1.2580	0.6215	9.9296
2.9150	0.2459	-0.3948	10.3740
2.9200	0.7693	0.3386	9.4719
2.9250	0.2829	0.5731	11.3318
2.9300	0.4187	0.3936	10.7395
2.9350	1.6576	-0.5611	9.3942
2.9400	1.9017	-0.7669	10.7910
2.9450	1.2861	0.3176	9.3858
2.9500	-0.2752	0.4827	9.1704
2.9550	0.5725	-0.0353	10.2257
2.9600	0.9422	-0.2824	9.5294
2.9650	1.4477	-0.0658	9.5551
2.9700	1.2455	0.1113	12.1633
2.9750	-0.1005	1.1874	8.6614
2.9800	0.1292	0.0185	9.5419
2.9850	0.6682	0.3230	10.5463
2.9900	1.1791	0.5258	9.3541
2.9950	0.8638	0.5791	9.2835
3.0000	0.5157	-0.1131	10.4147
3.0050	0.3643	0.9691	9.0885
3.0100	0.3679	0.0275	10.5619
3.0150	1.0391	-0.2782	10.4997
3.0200	0.7119	0.7896	9.8135
3.0250	1.2120	0.5240	9.3565
3.0300	0.5551	0.7005	9.5497
3.0350	0.7986	0.6969	9.4354
3.0400	0.3739	0.6072	10.0384
3.0450	0.1878	0.1944	10.5146
3.0500	1.0947	-0.6574	8.9599
3.0550	0.7663	0.9009	10.6636
3.0600	2.1475	0.3505	10.1431
3.0650	0.2177	0.6084	6.7758
3.0700	-0.7478	2.1158	10.7006
3.0750	0.2512	-0.4666	9.4689
3.0800	1.4040	-0.7047	10.1599
3.0850	0.5671	0.6837	10.7324
3.0900	1.6965	-0.9482	9.8721
3.0950	0.0413	1.5619	8.5716
3.1000	0.7119	0.6371	9.3044
3.1050	0.9793	-0.4732	10.2317
3.1100	1.5882	0.1926	10.6271
3.1150	0.4152	-0.8441	10.1910
3.1200	0.3075	0.3589	8.7463
3.1250	1.0068	-0.5551	9.1597
3.1300	-0.4971	1.1779	11.0464
3.1350	1.0289	-0.0640	8.0213
3.1400	1.1067	0.9828	8.1744
3.1450	0.1202	-0.3081	10.5595
3.1500	0.0156	-0.2171	9.7040
3.1550	-0.5653	1.1928	8.4939
3.1600	-0.9374	0.0030	9.3828
3.1650	1.2981	1.1767	8.5573
3.1700	-0.0646	-2.4131	8.8169
3.1750	1.8197	0.7388	12.1369
3.1800	1.6151	0.2943	8.0309
3.1850	0.8560	2.8445	8.5734
3.1900	1.1288	-1.7246	8.8049
3.1950	1.0421	0.9793	9.4474
3.2000	1.7438	-1.4303	10.1018
3.2050	0.5324	0.5755	11.2115
3.2100	0.8447	-0.6036	10.4237
3.2150	-0.3284	1.4518	10.5421
3.2200	1.7868	0.1525	11.2624
3.2250	1.1832	-0.8022	10.8640
3.2300	0.4403	0.5055	8.7248
3.2350	0.3942	0.5922	6.6430
3.2400	0.2124	1.6738	9.1543
3.2450	-0.3224	-0.0538	10.5834
3.2500	1.5679	-0.8273	9.5078
3.2550	1.0534	1.2395	9.5042
3.2600	-0.1729	-0.7041	9.7992
3.2650	0.0760	0.6802	8.4209
3.2700	0.7842	-0.2889	9.4121
3.2750	0.3828	-0.0401	10.1928
3.2800	0.2530	0.9595	9.2805
3.2850	0.7681	-0.9075	10.5296
3.2900	1.3633	0.3254	10.1365
3.2950	1.8568	-0.7328	11.4616
3.3000	0.5821	0.1615	10.4560
3.3050	0.3194	-0.6814	8.2995
3.3100	1.1886	-0.2764	8.7822
3.3150	1.2275	-0.0820	10.5738
3.3200	1.0630	0.6825	10.5678
3.3250	0.7304	-0.5503	10.3890
3.3300	-0.1490	-0.1884	10.6277
3.3350	1.9226	0.2626	9.9493
3.3400	1.1420	0.4331	9.7423
3.3450	0.4606	0.0299	9.8817
3.3500	-0.0993	0.3362	8.5495
3.3550	1.3346	1.0104	9.8075
3.3600	0.5240	-0.2118	11.7266
3.3650	0.5653	-0.6562	9.4899
3.3700	1.0762	0.7352	7.6666
3.3750	0.7376	-0.9392	9.2494
3.3800	-0.3948	1.1270	9.4378
3.3850	0.0520	-0.6377	9.8763
3.3900	1.3597	-0.6658	7.6032
3.3950	-0.1813	1.3460	9.3314
3.4000	1.1551	0.6257	10.7060
3.4050	1.5691	-0.2171	9.0041
3.4100	0.5474	1.0367	8.1679
3.4150	0.8423	1.2138	9.4067
3.4200	0.0090	0.9087	7.4979
3.4250	1.6702	-0.8823	8.3216
3.4300	0.9129	0.8159	10.3417
3.4350	0.5940	0.1478	10.0570
3.4400	1.0229	1.3902	10.4895
3.4450	0.6532	-0.9739	9.1830
3.4500	0.4588	0.1513	9.9900
3.4550	1.3926	0.2267	9.6891
3.4600	0.0299	-0.0066	8.9282
3.4650	0.5168	0.4756	7.2574
3.4700	0.5976	0.8070	9.1136
3.4750	0.6496	1.0905	11.4053
3.4800	1.0050	-0.5707	10.1347
3.4850	0.9679	0.6156	11.4317
3.4900	1.7545	-0.4337	11.1535
3.4950	0.1394	1.5493	10.6049
3.5000	0.4929	-0.5815	9.6161
3.5050	0.8040	1.4183	9.6795
3.5100	0.8369	0.3266	9.7124
3.5150	0.4510	0.2997	10.3184
3.5200	1.9424	-0.7561	8.5172
3.5250	-0.2291	0.4941	8.9042
3.5300	0.5707	0.5605	8.6931
3.5350	0.4044	0.6915	10.3280
3.5400	1.6911	2.1063	9.2464
3.5450	0.8949	0.0652	9.1908
3.5500	0.9757	0.5121	9.5437
3.5550	1.6702	-0.0754	8.0650
3.5600	0.5707	-0.1687	10.6265
3.5650	-0.1848	-0.1920	9.3439
3.5700	0.5880	1.6193	9.5371
3.5750	0.8644	-0.1573	9.8255
3.5800	-1.0223	0.4289	10.3752
3.5850	1.4267	0.3242	8.6572
3.5900	0.4211	0.7023	9.8440
3.5950	1.0971	-0.1226	8.9132
3.6000	0.7717	0.4343	8.6919
3.6050	0.5779	0.5809	9.4265
3.6100	0.7430	0.2536	8.7631
3.6150	-0.0658	-0.6843	9.3649
3.6200	0.4337	-0.0808	9.7166
3.6250	0.6915	1.5320	7.9908
3.6300	1.6612	-0.7866	9.2279
3.6350	0.8710	1.2724	10.2771
3.6400	0.9751	0.2668	10.7718
3.6450	0.2943	0.5677	9.8416
3.6500	1.5063	-1.0570	10.9100
3.6550	1.5093	0.7065	10.5601
3.6600	0.9440	-0.1161	8.6668
3.6650	-0.2997	-0.0778	8.3120
3.6700	0.8680	-0.5186	6.7262
3.6750	0.7101	1.5260	9.0364
3.6800	0.7232	0.9135	9.8428
3.6850	0.9027	0.5127	9.8703
3.6900	0.2686	0.3470	9.5144
3.6950	0.6257	0.2578	10.0564
3.7000	1.4016	0.5402	9.2488
3.7050	-0.0317	0.0323	10.0031
3.7100	0.9571	-0.2829	9.9086
3.7150	1.2676	0.2937	9.2697
3.7200	0.1842	0.6473	9.6370
3.7250	0.7759	0.8243	9.3720
3.7300	-0.1657	-0.1107	10.3860
3.7350	1.1294	0.7298	9.3427
3.7400	0.7286	-0.1250	8.5142
3.7450	0.5354	0.7813	8.1152
3.7500	1.0259	0.4475	8.9222
3.7550	0.5318	1.5188	9.0227
3.7600	-0.1352	0.2764	9.8524
3.7650	0.1029	-0.3159	9.0083
3.7700	1.1964	-0.6060	8.9282
3.7750	0.9942	0.9135	10.0277
3.7800	1.1306	0.4032	10.1347
3.7850	0.8865	-0.0742	8.4359
3.7900	0.2889	1.0253	11.2917
3.7950	1.4004	-0.0843	11.3347
3.8000	0.8542	0.5551	9.4809
3.8050	0.0347	-0.1890	9.5461
3.8100	1.4243	0.0514	8.3515
3.8150	-0.1418	0.9087	8.1433
3.8200	1.2191	-0.3703	9.0747
3.8250	0.7980	0.3470	8.3760
3.8300	1.4201	0.4893	9.3463
3.8350	-0.0179	0.0688	10.3298
3.8400	2.4263	0.4522	7.9411
3.8450	0.3577	-0.5031	8.4735
3.8500	0.2046	-0.4050	9.3954
3.8550	0.3823	0.3709	8.2839
3.8600	0.5043	0.4666	8.9677
3.8650	0.5162	1.3442	9.2057
3.8700	0.8423	-0.0066	10.9100
3.8750	1.0128	1.5828	10.8969
3.8800	0.0915	-0.0012	8.8390
3.8850	1.1605	-0.1687	10.7300
3.8900	0.6443	1.0600	13.0055
3.8950	0.9021	-2.3587	8.4801
3.9000	-0.4235	0.6490	8.4610
3.9050	1.3872	0.3577	12.9696
3.9100	0.5569	1.0744	11.1212
3.9150	0.7059	-0.5001	8.7272
3.9200	0.6939	0.0760	10.0965
3.9250	0.5850	0.1137	7.7425
3.9300	-1.1444	0.8148	9.0197
3.9350	-0.4768	-1.3017	7.2460
3.9400	1.5212	-0.1101	7.9447
3.9450	1.4094	-0.4636	9.6933
3.9500	0.6000	0.0921	11.5656
3.9550	0.9290	-0.4319	9.6628
3.9600	0.0915	1.1414	8.3533
3.9650	0.2590	-0.3446	8.4963
3.9700	0.8746	0.0963	10.1826
3.9750	1.1324	1.3256	10.9399
3.9800	1.8353	0.3087	9.7244
3.9850	-0.1161	0.9075	8.7876
3.9900	0.8698	0.1304	9.6705
3.9950	0.1083	0.9464	9.9284
4.0000	0.4205	-0.0616	9.7477
4.0050	0.1777	0.0652	10.0426
4.0100	1.1432	0.0640	9.9487
4.0150	1.4494	0.6604	9.4408
4.0200	0.6395	-0.9990	9.8715
4.0250	0.4917	0.4331	9.8715
4.0300	1.4022	0.7609	9.6460
4.0350	0.3003	0.2985	10.4841
4.0400	-0.1735	0.3320	9.0281
4.0450	1.3310	0.9715	8.7810
4.0500	0.7364	0.5085	10.7294
4.0550	1.1755	0.2207	9.8997
4.0600	1.5505	0.6604	11.0362
4.0650	0.8339	0.5282	9.3810
4.0700	0.1466	0.1663	8.5088
4.0750	0.9105	0.1280	10.9555
4.0800	0.1962	0.3242	9.7579
4.0850	0.1795	0.8937	8.9240
4.0900	1.0510	-0.0173	9.2267
4.0950	0.5850	-0.3858	11.3682
4.1000	0.7597	1.5051	9.9320
4.1050	0.1825	-0.4253	9.4977
4.1100	0.0802	0.1430	10.4440
4.1150	0.8584	0.0078	9.8183
4.1200	1.0169	0.2764	9.7567
4.1250	0.1196	0.9296	8.6769
4.1300	1.7001	0.3153	9.6951
4.1350	0.2518	-0.0401	8.6452
4.1400	1.2144	0.2381	10.1940
4.1450	0.9135	-0.5192	9.9254
4.1500	0.6574	0.1819	12.0191
4.1550	0.2028	0.4600	9.8656
4.1600	-0.4558	0.4175	10.0139
4.1650	1.0648	-0.0383	9.2333
4.1700	1.2784	0.2213	7.8849
4.1750	1.1336	0.5468	10.5726
4.1800	0.9661	0.8477	9.8141
4.1850	0.4941	-0.0580	9.6747
4.1900	-0.2889	0.1131	9.6556
4.1950	1.2526	-0.2518	9.5629
4.2000	1.1707	0.0843	11.5423
4.2050	0.7352	0.4660	10.8430
4.2100	0.7986	0.8746	9.5138
4.2150	0.5396	0.0520	9.4414
4.2200	1.9477	-0.2459	10.2227
4.2250	0.3386	0.7633	9.5108
4.2300	0.6120	0.1208	8.0548
4.2350	0.1358	0.4941	11.4185
4.2400	0.4235	-0.3517	8.6279
4.2450	0.3482	1.0283	9.2703
4.2500	0.7149	0.2943	9.7513
4.2550	1.6193	-0.4134	9.1334
4.2600	1.5045	0.6604	9.4384
4.2651	-0.1729	1.2700	9.1369
4.2701	-0.0688	-0.4487	8.7828
4.2751	0.2746	0.1549	9.2560
4.2801	0.5521	0.7382	8.9994
4.2851	2.0016	0.4546	8.5854
4.2901	1.1755	0.7621	10.8101
4.2951	0.7340	-0.6526	8.7786
4.3001	-0.1364	0.4816	9.1812
4.3051	1.4752	0.4193	8.3718
4.3101	1.0277	-0.2596	9.1824
4.3151	1.5009	0.0036	11.2199
4.3201	0.9924	-0.1998	9.8973
4.3251	1.5428	0.1496	9.1154
4.3301	0.2435	0.1896	10.7371
4.3351	0.7280	0.5826	10.3824
4.3401	0.6562	0.7370	10.4578
4.3451	0.2423	-0.0269	8.6979
4.3501	0.3362	0.0114	8.8977
4.3551	0.5133	1.6702	10.0809
4.3601	0.8614	0.1472	10.0169
4.3651	1.3119	1.7121	8.8917
4.3701	0.5587	-0.8632	8.3371
4.3751	-0.0090	-0.0987	10.0366
4.3801	0.8321	0.2459	9.4648
4.3851	-0.3051	0.1316	10.1066
4.3901	1.0929	0.1962	9.6664
4.3951	0.5288	-0.0209	8.7122
4.4001	1.5703	-0.5210	7.8616
4.4051	0.3063	1.8012	9.1417
4.4101	-0.9805	0.6233	9.7340
4.4151	-0.1525	-1.1468	10.3746
4.4201	1.1671	1.3065	9.9361
4.4251	1.1677	-0.1663	9.3350
4.4301	0.5139	0.6167	10.1838
4.4351	-0.2022	-1.1049	7.5356
4.4401	1.7629	-0.2877	8.6608
4.4451	1.3023	0.8291	9.5898
4.4501	1.2281	-1.3878	7.9920
4.4551	1.2425	0.2112	9.0299
4.4601	-0.2267	1.3119	8.4849
4.4651	0.1496	-0.5815	10.5128
4.4701	-0.1956	0.2704	11.0183
4.4751	2.2845	0.2782	10.3621
4.4801	1.1856	1.8670	8.7038
4.4851	0.4654	0.5683	9.7393
4.4901	0.3320	-0.5450	9.5515
4.4951	0.4026	-0.2483	10.1718
4.5001	0.9505	0.1986	9.5784
4.5051	0.6873	-0.3452	9.2069
4.5101	0.6700	1.0319	9.9433
4.5151	1.0893	0.6096	8.5794
4.5201	-0.1232	0.4175	9.2380
4.5251	0.8130	0.0419	10.1688
4.5301	1.0642	0.7382	10.2801
4.5351	0.0903	0.7830	9.0717
4.5401	1.5021	-0.0030	9.8428
4.5451	0.3709	0.8674	10.7569
4.5501	1.3699	-0.0694	9.3409
4.5551	0.2040	-0.1693	10.9166
4.5601	1.0947	-1.7013	9.2662
4.5651	-0.2183	0.4546	10.7006
4.5701	0.4403	-0.7364	9.8368
4.5751	-0.3464	0.4929	8.9359
4.5801	0.7113	0.8130	9.5539
4.5851	0.9099	0.9846	8.0841
4.5901	1.1719	0.5426	8.1218
4.5951	0.6891	0.6090	10.6797
4.6001	0.6496	-0.1011	9.9583
4.6051	0.3494	0.1825	10.7515
4.6101	1.0887	-0.3900	10.2921
4.6151	0.6461	-0.6508	9.0777
4.6201	1.3095	-0.1017	8.8755
4.6251	1.2263	0.2788	9.0167
4.6301	-0.7406	0.8602	8.9377
4.6351	0.3159	-1.1850	9.1740
4.6401	1.0134	0.2106	8.9623
4.6451	0.7824	0.9936	9.9236
4.6501	0.3541	0.4110	9.5048
4.6551	0.2291	1.0666	9.9726
4.6601	0.2321	0.3081	11.1314
4.6651	0.6538	-0.1555	9.1764
4.6701	2.0680	0.4128	7.7150
4.6751	1.2754	1.5619	11.5417
4.6801	0.2363	0.9170	8.8995
4.6851	-0.7424	0.2853	10.0229
4.6901	-0.3637	-0.9470	8.7080
4.6951	0.4140	-0.3290	9.2446
4.7001	0.6341	-0.7286	9.3218
4.7051	0.9757	0.7902	11.3329
4.7101	0.8620	-1.2353	10.1024
4.7151	0.2770	0.3703	9.3906
4.7201	0.3864	-0.8734	7.3148
4.7251	0.3260	0.5432	11.2426
4.7301	1.2963	0.6814	10.2478
4.7351	0.0586	1.2437	10.0402
4.7401	0.3727	-0.2429	8.4466
4.7451	0.1334	1.1952	10.0749
4.7501	1.6457	-0.6090	10.8747
4.7551	0.5414	1.1743	7.8556
4.7601	-0.0299	-0.8716	12.6466
4.7651	-0.7292	-0.2650	11.8558
4.7701	1.1982	0.1848	12.4510
4.7751	1.6905	-1.1707	9.4259
4.7801	1.0451	0.5569	10.0689
4.7851	1.8383	0.6060	8.3228
4.7901	-0.0706	1.4453	8.0177
4.7951	0.9224	-0.3374	7.6618
4.8001	-1.0056	1.1456	10.8526
4.8051	1.1557	-0.2824	9.8685
4.8101	-0.1035	-0.0311	10.1036
4.8151	0.8417	-0.3966	9.6927
4.8201	0.3745	0.8483	11.2414
4.8251	0.5683	-0.1298	10.2777
4.8301	0.2070	0.2554	9.6490
4.8351	0.9894	0.0120	8.8349
4.8401	0.5294	0.4516	10.2077
4.8451	0.6060	0.1226	9.9296
4.8501	0.5121	0.9374	9.9936
4.8551	0.0090	0.3075	6.1926
4.8601	0.9930	0.3852	7.6289
4.8651	0.7394	1.3992	7.2209
4.8701	-0.1454	1.2604	9.0023
4.8751	-0.0849	-0.8249	10.6432
4.8801	0.7824	1.0582	11.0709
4.8851	0.9864	0.3470	11.1523
4.8901	0.3446	0.0879	9.8171
4.8951	1.3460	0.1178	9.1956
4.9001	-0.0425	0.8423	9.6693
4.9051	0.1178	0.4038	7.3651
4.9101	0.8554	0.1119	8.8085
4.9151	0.8309	0.9565	9.3607
4.9201	0.3601	-0.5480	9.2339
4.9251	0.5079	1.3513	9.9242
4.9301	1.0343	0.5103	8.7882
4.9351	1.5822	0.2106	10.1336
4.9401	0.9751	0.3745	10.8747
4.9451	0.7011	0.5988	11.6440
4.9501	1.4249	-0.0676	11.2725
4.9551	-0.1418	-0.7304	10.4309
4.9601	1.1420	-0.0754	8.6010
4.9651	-0.2590	0.6598	11.4759
4.9701	1.3298	-0.3607	9.0909
4.9751	0.6407	0.5372	8.0997
4.9801	0.5474	0.9906	10.8520
4.9851	-0.0676	-0.7137	11.5752
4.9901	0.6586	0.4056	11.2893
4.9951	0.4887	0.0808	10.3471
5.0001	1.2664	0.0969	8.9503
5.0051	0.0227	-1.0492	10.3046
5.0101	0.6808	0.7842	6.1555
5.0151	0.3332	0.2770	7.4177
5.0201	1.1743	0.6012	12.0059
5.0251	1.0851	0.5474	13.4159
5.0301	1.3364	-0.2399	11.8295
5.0351	0.5198	-0.3547	11.6602
5.0401	1.0044	1.1025	10.5128
5.0451	0.2973	0.6024	8.6500
5.0501	0.1119	1.0648	8.9192
5.0551	-0.0479	0.2387	8.9054
5.0601	1.2700	0.0138	8.5058
5.0651	0.7848	0.7681	10.7108
5.0701	0.8303	-0.1125	10.3830
5.0751	0.2106	-0.1854	10.2275
5.0801	1.1049	0.5246	10.4949
5.0851	0.6820	0.4313	10.0342
5.0901	0.5097	0.2195	10.4991
5.0951	0.4983	-0.3248	9.6891
5.1001	0.7998	0.4379	9.8781
5.1051	0.4965	0.8022	9.5641
5.1101	1.1324	-0.2285	8.9850
5.1151	0.8393	0.8357	9.3158
5.1201	1.1318	0.6221	10.2077
5.1251	0.8076	0.2447	10.7150
5.1301	0.3182	-0.3123	10.2005
5.1351	0.2405	0.9990	10.8580
5.1401	0.9141	-0.0359	8.7589
5.1451	0.6060	0.5085	10.3447
5.1501	0.5031	0.5300	9.7100
5.1551	-0.3470	-0.1424	7.9501
5.1601	1.0217	1.9059	9.2213
5.1651	1.5470	-0.0610	10.1006
5.1701	0.7226	0.0730	12.2171
5.1751	-0.3410	0.8668	11.8755
5.1801	0.6437	-0.5659	10.9100
5.1851	0.7005	-0.7412	10.4416
5.1901	1.3872	0.1717	9.9607
5.1951	0.1609	-0.3673	7.0349
5.2001	0.6760	1.8772	8.5740
5.2051	1.9238	-0.2794	8.9533
5.2101	-0.1077	0.5276	10.4309
5.2151	-0.5761	0.4265	8.3503
5.2201	0.8201	0.0132	9.7328
5.2251	0.0497	1.6014	11.4998
5.2301	1.1898	-1.3651	12.3212
5.2351	-0.5928	0.8148	13.1174
5.2401	2.3802	-1.4829	9.2416
5.2451	1.2897	1.9370	9.0287
5.2501	0.1711	-0.9757	9.8536
5.2551	-0.8548	1.1856	10.0737
5.2601	1.1198	-1.5446	9.5425
5.2651	-0.5019	1.6457	7.9160
5.2701	1.0181	-1.7785	7.4243
5.2751	0.9769	0.9840	6.9260
5.2801	2.5280	-0.0790	11.2875
5.2851	1.9244	3.0173	9.6041
5.2901	-0.0676	-1.4698	8.1762
5.2951	-1.0044	1.8670	8.7140
5.3001	2.0973	2.2648	6.1627
5.3051	-0.1819	0.7555	9.3080
5.3101	1.4746	-1.2413	8.6261
5.3151	0.8273	0.8518	8.8408
5.3201	0.7232	0.6610	9.9565
5.3251	0.8082	1.1928	11.1499
5.3301	1.4961	0.1759	6.4145
5.3351	0.4762	1.0319	10.6474
5.3401	0.6634	1.7432	7.8765
5.3451	-0.6179	0.2829	12.0173
5.3501	-0.7406	-0.2626	9.9427
5.3551	0.5414	-0.5240	7.2885
5.3601	1.1115	-0.6658	7.3567
5.3651	1.5990	0.0449	9.8991
5.3701	1.7677	0.1621	9.4672
5.3751	-0.4433	-0.3356	12.5491
5.3801	1.1432	-1.3968	8.4574
5.3851	-0.8716	0.0203	8.3270
5.3901	1.3226	0.6712	8.9066
5.3951	0.4002	0.7238	7.4135
5.4001	1.7234	1.3316	9.7016
5.4051	0.1125	-0.0514	8.9497
5.4101	0.6293	-0.4289	10.8729
5.4151	1.3095	-0.1627	11.8528
5.4201	1.3023	0.1394	9.2566
5.4251	-0.7113	1.1384	8.8307
5.4301	0.5533	-0.0622	11.6787
5.4351	1.2939	1.3507	8.7326
5.4401	-0.4134	0.5384	10.4147
5.4451	2.0782	-0.0036	7.6295
5.4501	0.0867	-0.6479	9.6628
5.4551	0.9302	0.4265	9.5772
5.4601	1.4620	-0.5031	9.1681
5.4651	-0.4642	0.2985	9.7585
5.4701	1.3208	-0.1848	10.0007
5.4751	1.0977	2.2020	9.5527
5.4801	1.1886	0.6150	7.9364
5.4851	1.2784	1.1892	10.6223
5.4901	1.3657	0.8034	10.4889
5.4951	-0.2560	0.5270	11.0494
5.5001	0.7160	-0.1884	10.1108
5.5051	-0.5916	0.4331	10.4099
5.5101	1.4746	-0.9733	8.5316
5.5151	0.9087	1.2431	10.5326
5.5201	0.8351	-0.9362	8.7822
5.5251	2.6590	1.0397	10.6989
5.5301	0.5683	0.1436	9.7627
5.5351	0.7262	-0.9565	10.0779
5.5401	-0.4086	0.8375	8.7194
5.5451	0.1436	0.3721	9.8356
5.5501	1.1186	-0.5910	8.7685
5.5551	1.4734	0.3505	9.2997
5.5601	1.2718	-0.3739	9.6957
5.5651	0.0754	1.0492	10.3040
5.5701	-0.0730	-0.8650	10.7934
5.5751	0.5880	0.1938	8.7385
5.5801	1.3125	0.3488	8.4658
5.5851	0.5773	0.3081	9.6023
5.5901	0.9158	0.4337	8.7278
5.5951	0.5934	0.4624	10.5577
5.6001	1.1581	0.6796	9.9942
5.6051	1.2155	0.7340	10.0247
5.6101	0.4487	-0.3398	10.3381
5.6151	0.7914	-0.4911	9.7609
5.6201	-0.0084	-0.5653	9.4061
5.6251	2.0339	0.0461	9.0693
5.6301	0.6455	0.6365	9.3559
5.6351	1.7551	0.2267	9.3553
5.6401	0.2345	1.3154	11.7720
5.6451	1.3358	-0.7478	9.7465
5.6501	0.1268	0.1860	11.6697
5.6551	1.3657	-0.2991	9.2991
5.6601	1.2203	0.6221	9.4229
5.6651	0.7041	0.3476	9.4289
5.6701	0.4469	-0.6939	9.8356
5.6751	0.9057	-0.0305	10.1814
5.6801	0.4337	0.9482	11.9880
5.6851	1.1557	-1.2544	9.7423
5.6901	0.9864	0.5838	11.0350
5.6951	1.1282	0.1268	9.0047
5.7001	0.6048	0.3679	9.1782
5.7051	-0.0790	1.6379	9.0604
5.7101	1.0881	0.5276	10.0079
5.7151	0.9428	0.0437	9.8793
5.7201	1.2628	-0.7190	8.9802
5.7251	0.9607	0.3440	10.4069
5.7301	-1.0935	0.3655	10.5595
5.7351	0.8662	1.2054	10.5930
5.7401	0.3380	-0.8399	8.3204
5.7451	0.4349	-0.1956	10.7503
5.7501	1.5320	-0.7208	10.5152
5.7551	-0.6861	-0.2387	11.9760
5.7601	0.5928	-0.0855	9.2763
5.7651	0.8345	0.9434	9.0239
5.7701	0.5581	0.2171	9.1405
5.7751	0.8931	-0.1298	8.5411
5.7801	-0.2297	1.0421	9.1423
5.7851	0.7591	0.0060	10.3190
5.7901	1.1910	1.0558	10.7294
5.7951	1.8401	0.2590	10.5762
5.8001	0.9188	-0.0096	10.0983
5.8051	0.0431	-0.1095	9.0759
5.8101	0.0491	-1.1097	10.5104
5.8151	1.6331	1.1192	9.2345
5.8201	0.4181	-1.4477	8.0147
5.8251	0.9111	0.9075	10.0869
5.8301	0.8070	0.4648	10.3357
5.8351	-0.6736	0.1214	10.1437
5.8401	1.2257	-0.5456	9.2871
5.8451	0.6197	0.4642	7.8430
5.8501	1.9017	-0.4211	8.5824
5.8551	0.5025	2.2636	9.1776
5.8601	0.1753	-0.2764	10.7670
5.8651	0.2883	-0.4487	10.4392
5.8701	0.8686	0.6837	8.5776
5.8751	0.6867	0.7968	10.1240
5.8801	0.9338	-0.2058	8.5226
5.8851	0.4630	0.2961	11.2839
5.8901	-0.1585	0.2548	11.6494
5.8951	1.1713	0.6203	8.4885
5.9001	0.5007	-0.2746	9.4229
5.9051	1.4315	-0.4421	8.8247
5.9101	0.4122	0.5079	8.6739
5.9151	0.9565	0.5958	9.5258
5.9201	0.4798	1.3573	10.2113
5.9251	0.7651	0.4355	10.2819
5.9301	-0.1256	0.8746	11.4484
5.9351	0.7077	-0.6389	9.6305
5.9401	0.5545	-0.2901	8.2707
5.9451	1.2317	0.3745	8.2815
5.9501	0.0239	0.2656	9.5952
5.9551	-0.3589	-0.2279	11.3329
5.9601	0.2973	0.1059	8.3258
5.9651	-1.5691	-0.5366	10.0091
5.9701	1.7097	-0.1430	7.8717
5.9751	0.6802	0.3828	9.6364
5.9801	0.5294	0.1149	10.4003
5.9851	1.6199	0.1848	8.4448
5.9901	-0.4941	0.5055	10.3310
5.9951	0.6652	0.5826	8.5962
6.0001	0.6520	-0.9667	9.9314
6.0051	1.9262	1.0038	8.8899
6.0101	0.9577	0.6778	9.8608
6.0151	-0.2369	1.2455	11.0051
6.0201	1.2215	-0.6030	9.6185
6.0251	-0.0520	1.0241	10.2269
6.0301	1.6457	-0.0784	9.3924
6.0351	0.3936	1.3466	8.1864
6.0401	0.8740	0.2303	10.3728
6.0451	-0.0461	1.0684	10.9782
6.0501	0.8692	0.4277	9.9218
6.0551	0.1364	0.1531	9.7591
6.0601	1.5146	-0.0048	8.9246
6.0651	0.1956	0.3200	9.0305
6.0701	0.3505	0.8381	10.6097
6.0751	0.2112	0.3511	9.6053
6.0801	0.5139	-0.6508	9.4869
6.0851	1.5912	0.3990	9.8135
6.0901	0.4391	0.2495	10.1880
6.0951	0.7394	-0.7687	11.7260
6.1001	0.3547	-0.1274	10.5397
6.1051	1.4584	0.4038	11.4723
6.1101	1.5709	-0.6365	9.1022
6.1151	1.3436	-0.3715	9.8578
6.1201	0.8500	-0.4074	10.3286
6.1251	1.2401	2.4239	9.0987
6.1301	-0.2231	-0.7902	9.1842
6.1351	1.5099	0.2088	11.2247
6.1401	0.5611	0.3075	9.3804
6.1451	1.2413	0.9320	9.5156
6.1501	1.4823	1.3065	9.3912
6.1551	0.0963	0.7047	10.0468
6.1601	-1.2155	-0.5408	10.1742
6.1651	0.9129	-0.1412	8.3778
6.1701	-0.2471	-1.6839	9.2584
6.1751	1.2520	0.4056	7.9423
6.1801	0.5653	-0.4463	9.5234
6.1851	0.4277	0.5617	10.7796
6.1901	0.5940	0.0766	9.4689
6.1951	-0.0203	0.9129	10.8675
6.2001	1.5206	-0.9727	9.5653
6.2051	0.7705	1.3448	9.9589
6.2101	1.1563	0.2130	10.6109
6.2151	0.8931	1.1049	9.9397
6.2201	0.1771	-0.1651	9.6418
6.2251	1.8233	-0.5557	10.1312
6.2301	0.2704	-0.3745	8.8546
6.2351	1.5434	0.8560	8.8779
6.2401	0.2794	1.2149	9.8207
6.2451	0.3517	1.1264	9.3942
6.2501	-0.6425	0.9320	9.7040
6.2551	1.1527	-0.8788	8.6763
6.2601	-0.3781	-0.2124	9.6143
6.2651	1.1611	-0.7448	7.8030
6.2701	0.4552	0.2495	10.7898
6.2751	0.3087	0.1388	10.9848
6.2801	1.4632	-0.2841	10.2933
6.2851	0.3320	1.2269	9.1017
6.2901	1.5679	-0.5497	8.3377
6.2951	0.6855	1.5936	8.6273
6.3001	1.0816	1.0504	9.4749
6.3051	1.2401	0.4385	9.9044
6.3101	-0.1418	-0.3703	9.8147
6.3151	0.4498	-0.5557	11.4747
6.3201	-0.2853	0.7478	9.6173
6.3251	1.8520	1.6385	9.7507
6.3301	0.8040	0.9170	8.6602
6.3351	0.4887	0.2991	9.3792
6.3401	-0.2381	0.6018	9.8458
6.3451	-0.2949	-0.6335	8.3605
6.3501	0.9356	0.7537	7.3364
6.3551	0.9182	1.2867	9.9912
6.3601	-0.1525	1.6056	8.9718
6.3651	0.0269	1.3148	9.3834
6.3701	0.5515	0.0150	7.3980
6.3751	0.2154	-0.7376	9.9122
6.3801	0.2363	0.1394	11.5501
6.3851	1.8048	-0.3147	12.0759
6.3901	-0.3446	0.7830	9.7136
6.3951	1.9735	-0.3930	10.6432
6.4001	-0.4600	1.3531	9.8811
6.4051	0.7202	-0.1645	9.4049
6.4101	1.1683	1.3376	8.2773
6.4151	0.5677	1.2634	9.9774
6.4201	1.2981	0.1412	10.1012
6.4251	-1.4112	0.7585	11.3653
6.4301	0.9314	0.3870	9.9475
6.4351	0.6784	0.3559	8.7589
6.4401	0.9589	0.2530	9.1866
6.4451	0.7639	0.3452	8.7906
6.4501	0.6473	1.0403	10.0905
6.4551	0.6389	0.5049	10.8514
6.4601	0.2566	-0.1047	8.0913
6.4651	0.7729	0.7573	9.0263
6.4701	0.6185	0.7759	8.8875
6.4751	0.8148	0.3452	9.2398
6.4801	1.4638	-0.9583	10.8023
6.4851	0.4415	1.1677	10.5152
6.4901	0.8734	0.1878	10.3674
6.4951	0.3679	0.8596	9.9038
6.5001	0.3888	0.2471	8.8043
6.5051	-0.0173	0.0485	8.4323
6.5101	1.0163	1.7659	8.0524
6.5151	0.9517	-1.6720	8.7541
6.5201	0.3093	1.3035	10.3878
6.5251	0.5719	-1.1462	9.5826
6.5301	-0.3290	1.2825	10.9304
6.5351	1.8419	-0.4032	9.8536
6.5401	0.3894	0.4546	9.2763
6.5451	0.8189	-0.0467	10.5445
6.5501	0.7615	0.8094	8.8073
6.5551	0.0634	0.7292	10.8113
6.5601	0.6467	-0.5803	10.7617
6.5651	1.7450	-0.2189	9.0508
6.5701	0.6598	0.1119	12.2727
6.5751	2.0112	0.7172	8.7332
6.5801	0.5695	-0.1519	9.5042
6.5851	0.2022	-0.5545	10.0869
6.5901	1.1545	0.0682	8.9150
6.5951	0.9081	-0.3709	9.2177
6.6001	1.2885	-0.0401	9.9966
6.6051	0.4301	1.0439	9.2291
6.6101	0.3135	1.3250	11.0362
6.6151	1.1569	0.7914	10.8975
6.6201	0.0185	1.2909	11.4849
6.6251	0.7310	-1.6193	6.0795
6.6301	0.0706	0.0502	8.8301
6.6351	0.8076	-1.0564	8.1451
6.6401	1.2239	1.0528	7.5248
6.6451	1.2592	0.9787	8.8881
6.6501	0.5653	0.5013	10.9662
6.6551	0.3631	1.0600	9.9409
6.6601	0.3972	-0.6066	11.0482
6.6651	-0.0784	0.7484	9.4989
6.6701	1.6738	0.1914	10.1694
6.6751	0.5779	-0.7801	9.1184
6.6801	0.4313	0.5671	9.4486
6.6851	0.1149	-0.1250	9.6825
6.6901	0.1777	0.2788	9.7938
6.6951	1.4943	0.9559	8.5519
6.7001	-0.4062	1.4363	10.4279
6.7051	1.6002	0.5366	10.1736
6.7101	-0.5653	0.7041	9.8721
6.7151	1.7312	0.3942	9.1537
6.7201	0.7579	0.1424	9.2345
6.7251	0.9625	0.5898	9.6448
6.7301	1.1605	-0.0796	8.6279
6.7351	0.1866	0.6550	11.0548
6.7401	-0.2913	0.0431	8.0674
6.7451	0.6066	-0.9858	9.7974
6.7501	0.7328	0.4588	10.8227
6.7551	0.7621	0.4205	9.0855
6.7601	-0.4397	-0.1663	11.1810
6.7651	0.5599	0.2094	10.0205
6.7701	0.6628	-0.4684	10.6301
6.7751	1.0211	0.0969	10.4368
6.7801	1.0636	0.5216	8.9443
6.7851	0.5904	0.6239	10.0899
6.7901	0.7478	0.4887	10.2837
6.7951	1.0821	-0.2710	8.9700
6.8001	1.1150	0.8477	9.8638
6.8051	1.2598	1.0678	9.7525
6.8101	-0.1908	0.3332	11.6315
6.8151	1.0325	-1.0169	9.8458
6.8201	0.7340	0.1478	9.8691
6.8251	0.5426	0.6233	10.2658
6.8301	1.2311	1.6122	8.5052
6.8351	0.4654	-0.1777	9.7244
6.8401	-0.1172	0.7178	9.7890
6.8451	0.3703	-0.0556	9.6251
6.8501	-0.0090	-2.2313	10.1629
6.8551	1.8568	1.5338	10.4937
6.8601	0.9685	-0.3763	11.7989
6.8651	1.7479	-0.7406	10.6013
6.8701	0.4905	1.4130	7.2813
6.8751	-0.2704	0.5282	9.7974
6.8801	0.0748	-1.2281	7.9519
6.8851	-0.0305	0.5892	8.2887
6.8901	1.7336	-0.2716	11.0434
6.8951	1.0151	2.2463	10.4596
6.9001	0.7208	-1.0684	10.2185
6.9051	1.1916	1.1868	12.3355
6.9101	1.2030	-0.2530	8.0309
6.9151	0.5228	2.5430	10.5714
6.9201	0.4899	0.5635	7.6115
6.9251	-0.9015	0.2417	11.2636
6.9301	0.0730	-1.5194	9.4127
6.9351	0.7711	0.8028	8.4753
6.9401	0.0802	-0.0257	8.4783
6.9451	-0.0102	1.1509	8.3354
6.9501	0.8812	-0.5450	7.8831
6.9551	-0.5916	1.1803	13.3579
6.9601	1.3807	0.3673	10.7012
6.9651	-0.4833	-0.5581	10.8526
6.9701	1.6833	-0.7358	8.2642
6.9751	0.8124	0.0814	7.2628
6.9801	1.5242	-0.3153	9.7393
6.9851	0.8919	1.5302	8.3479
6.9901	-0.1747	0.0497	10.0947
6.9951	0.7591	0.4798	12.9134
7.0001	0.5031	0.7573	10.0181
7.0051	0.8919	0.0491	8.8612
7.0101	1.1868	1.0271	9.5868
7.0151	0.3900	0.5270	9.3972
7.0201	0.8973	-0.6490	10.4949
7.0251	1.2903	1.3166	9.4193
7.0301	0.8124	-0.2824	10.4673
7.0351	0.1316	-1.0481	10.3734
7.0401	-0.1460	0.3547	10.3226
7.0451	0.1370	-0.6215	9.2919
7.0501	0.8841	0.4223	10.0731
7.0551	0.6132	1.3202	8.7009
7.0601	1.3430	0.7836	9.0095
7.0651	1.6851	0.5958	11.1170
7.0701	-0.8333	1.5816	12.4474
7.0751	0.8758	-1.4052	7.2107
7.0801	1.3065	0.2865	10.0582
7.0851	1.6163	-0.6395	7.6139
7.0901	0.8536	-0.5599	9.8303
7.0951	0.7442	0.0257	12.3032
7.1001	2.0291	0.4110	13.0606
7.1051	0.4636	1.8843	12.5377
7.1101	0.6574	-0.8088	11.9808
7.1151	0.4696	0.2728	9.4205
7.1201	0.2596	0.2088	9.8285
7.1251	0.8788	1.1444	8.0686
7.1301	1.0110	0.5838	9.8344
7.1351	0.9906	-0.0820	9.5677
7.1401	1.0678	-0.7633	12.1483
7.1451	0.8889	1.7485	11.7648
7.1501	0.3727	1.5152	8.4963
7.1551	0.1681	0.1304	9.5192
7.1601	-0.1717	0.6975	7.8275
7.1651	0.9793	-0.6808	8.5298
7.1701	0.8734	0.9111	10.0534
7.1751	1.5577	1.6738	6.4462
7.1801	0.8393	1.0110	11.6524
7.1851	-0.1950	-0.6490	10.1718
7.1901	0.5749	-1.3902	8.3258
7.1951	0.3045	0.1304	10.0677
7.2001	0.8997	2.2002	8.0231
7.2051	0.0993	1.3890	8.3653
7.2101	0.3015	-0.1346	7.2927
7.2151	2.8600	-0.6269	8.8540
7.2201	-1.6038	-0.4588	11.2366
7.2251	2.0554	0.2070	7.7862
7.2301	0.1507	0.6640	10.3824
7.2351	-1.7061	-0.7585	9.7860
7.2401	1.1814	-1.6187	8.2020
7.2451	-0.0012	0.4977	13.1796
7.2501	1.9113	-0.6437	9.7944
7.2551	-0.3613	1.4189	9.6000
7.2601	-0.5826	-2.5507	10.6492
7.2651	0.7573	-0.4223	9.3409
7.2701	-0.6359	-0.0796	8.5453
7.2751	0.7370	0.0694	8.8666
7.2801	0.4415	1.3932	9.0807
7.2851	2.4275	-1.5745	11.4173
7.2901	1.4022	0.1071	9.0179
7.2951	1.0385	-0.8686	10.1168
7.3001	1.8018	-0.0066	7.0510
7.3051	0.2219	1.8742	7.6343
7.3101	-0.2261	0.2656	8.7415
7.3151	1.1156	1.0457	7.8053
7.3201	0.0664	-0.4732	9.5533
7.3251	2.1709	0.8112	10.4476
7.3301	0.9487	0.9135	10.6043
7.3351	0.7759	-0.8668	12.1579
7.3401	1.1438	-1.2299	9.3080
7.3451	-0.1149	-0.1950	10.0366
7.3501	0.4786	1.0247	8.4095
7.3551	0.4905	0.6915	7.5134
7.3601	0.2650	-0.1866	8.7822
7.3651	2.2780	-1.0492	11.1984
7.3701	-1.1192	-0.1089	10.9543
7.3751	1.5966	0.1143	7.4195
7.3801	-0.4451	0.4187	9.7022
7.3851	0.8841	0.3529	8.4347
7.3901	0.4702	0.4756	12.0059
7.3951	1.3525	-0.5079	9.3553
7.4001	1.1797	0.0646	9.2823
7.4051	0.8608	0.2267	9.3050
7.4101	0.6820	-0.7113	7.9202
7.4151	1.3525	0.7765	10.8693
7.4201	0.3284	-0.1639	9.1172
7.4251	-0.0861	1.4447	10.1114
7.4301	0.3039	-1.8197	9.5724
7.4351	1.1318	1.4919	9.5659
7.4401	0.5162	-0.7095	8.8283
7.4451	0.8608	1.1689	8.9850
7.4501	-0.0945	0.3864	8.9760
7.4551	-1.2724	0.2064	12.1453
7.4601	1.2778	-0.7962	10.7060
7.4651	-0.0251	-1.3753	11.3611
7.4701	1.9573	-1.8580	8.2612
7.4751	0.4552	2.4514	8.0913
7.4801	0.7783	-0.5695	9.9786
7.4851	-0.0921	0.5073	11.0344
7.4901	0.4911	0.2082	9.5551
7.4951	0.9260	-0.0197	10.9662
7.5001	0.9057	2.7410	8.8594
7.5051	0.5162	0.4277	8.7050
7.5101	0.5162	0.0485	9.7471
7.5151	1.5045	-0.7388	8.1397
7.5201	1.1097	1.2431	9.2016
7.5251	1.1318	1.0917	8.3090
7.5301	0.1196	0.8159	8.9425
7.5351	-0.6401	-1.0277	11.9664
7.5401	0.8596	0.0837	9.4043
7.5451	1.6804	-1.7773	10.3160
7.5501	1.2455	2.6680	9.1525
7.5551	1.6839	0.6233	10.7670
7.5601	-1.5876	0.1220	12.1022
7.5651	1.9890	-1.6804	9.9361
7.5701	-0.2231	-0.4014	12.1124
7.5751	0.9996	-0.5629	8.6811
7.5801	-0.2800	1.1665	9.7064
7.5851	-0.0700	0.4134	10.3399
7.5901	2.3366	0.2130	9.4576
7.5951	0.3601	-0.1543	10.8448
7.6001	1.9723	-0.3009	10.8311
7.6051	-0.5294	1.4028	9.2063
7.6101	-1.0385	0.8494	11.7870
7.6151	0.8459	0.4726	6.9517
7.6201	0.0317	-0.5922	12.0508
7.6251	0.7489	0.3882	5.9742
7.6301	-0.6245	-0.8201	6.7112
7.6351	-0.7184	0.6945	9.0335
7.6401	1.9113	0.6473	6.9451
7.6451	-0.8261	0.4863	9.9858
7.6501	2.3282	-0.1172	8.5842
7.6551	-0.0987	2.6776	11.6303
7.6601	0.5061	-1.0624	9.5796
7.6651	0.6724	-0.2770	9.7369
7.6701	0.4211	-0.5898	11.5052
7.6751	1.2969	-0.1412	8.3407
7.6801	0.7041	0.6855	9.9248
7.6851	-1.0098	0.0879	9.3702
7.6901	0.2853	0.0347	11.3096
7.6951	0.7693	-0.1729	10.1742
7.7001	1.7438	-0.6167	9.2476
7.7051	0.3206	1.8431	9.6029
7.7101	-0.1944	-0.5276	9.2362
7.7151	0.3565	0.8800	8.3449
7.7201	0.6221	-0.0018	10.2508
7.7251	1.1671	0.9332	9.9272
7.7301	0.7609	-0.0473	9.7046
7.7351	0.3446	0.1597	9.4456
7.7401	0.1914	0.5587	6.8135
7.7451	0.9547	-1.4806	9.5234
7.7501	1.8161	0.7083	7.9088
7.7551	1.9501	-0.5133	11.6745
7.7601	-1.1444	1.6857	12.4492
7.7651	0.7370	-1.4100	8.7332
7.7701	0.7059	1.4698	9.7710
7.7751	1.2688	1.2562	8.2420
7.7801	1.0732	0.1633	10.5176
7.7851	0.7687	-0.2052	11.8707
7.7901	0.7298	-0.4175	9.9846
7.7951	0.3805	-0.9464	9.9050
7.8001	0.9362	1.6756	8.7062
7.8051	-0.2925	-0.0784	7.2436
7.8101	0.5366	0.7813	10.6612
7.8151	-0.5139	-1.2443	12.2841
7.8201	1.6648	-0.6233	10.5954
7.8251	1.2167	1.5649	9.5180
7.8301	1.7360	-1.3466	10.1593
7.8351	0.2489	1.5458	11.8785
7.8401	1.3358	-1.3501	8.6303
7.8451	-0.6042	-0.0263	9.3505
7.8501	1.2401	0.8907	9.9852
7.8551	1.6044	0.1304	11.6309
7.8601	1.0642	0.1005	10.9070
7.8651	0.0682	-0.2495	9.2315
7.8701	-0.1795	1.1001	5.9587
7.8751	0.1830	-0.4008	9.1005
7.8801	-0.0329	0.2500	9.0568
7.8851	0.4965	-0.3182	12.5341
7.8901	0.4283	-0.3470	8.6213
7.8951	2.1422	0.8106	12.0436
7.9001	2.0626	2.1380	11.5375
7.9051	1.4997	-0.9703	7.9106
7.9101	1.5577	1.0134	13.7946
7.9151	0.7340	1.4219	11.1607
7.9201	0.2584	-0.8058	11.8205
7.9251	0.7795	1.4901	8.7104
7.9301	-0.1113	0.0299	9.4642
7.9351	0.6365	-0.0544	9.8859
7.9401	1.5009	-0.0867	10.2125
7.9451	-0.0897	1.3932	9.7716
7.9501	0.6347	-1.0319	9.5240
7.9551	0.5192	0.8249	9.9756
7.9601	0.0203	0.2824	11.8731
7.9651	1.6624	-0.1717	9.1070
7.9701	0.0550	0.3685	9.0484
7.9751	0.7573	-1.6457	10.1377
7.9801	1.2628	1.3220	10.2933
7.9851	-0.6963	-0.5486	9.0885
7.9901	1.1378	0.2901	8.9976
7.9951	-0.8901	1.5990	10.4787
8.0001	1.1791	-1.2993	8.4275
8.0051	1.2311	1.1204	9.9942
8.0101	0.3021	0.8387	11.2247
8.0151	2.6668	0.9613	11.6081
8.0201	-0.4074	1.0792	11.4113
8.0251	1.2479	-0.5139	9.7974
8.0301	0.7675	-0.0485	10.0983
8.0351	-0.5348	1.6606	10.4943
8.0401	2.4431	1.2096	11.9060
8.0451	-0.6981	0.1723	10.6743
8.0501	1.7240	-1.6744	6.8626
8.0551	0.8919	1.3890	10.2059
8.0601	0.5043	0.8267	7.4207
8.0651	-0.7466	0.1196	7.9651
8.0701	0.3051	-0.1137	8.3671
8.0751	1.6726	-0.3547	6.5096
8.0801	-0.3942	-0.9015	10.8699
8.0851	1.6110	0.7561	8.6542
8.0901	1.7288	0.4738	10.7222
8.0951	1.3639	-0.6461	9.3116
8.1001	2.1021	0.7639	10.1712
8.1051	-1.4841	-0.3685	12.6346
8.1101	0.6305	-1.3675	8.5298
8.1151	0.0610	1.5990	11.7266
8.1201	0.5049	-0.5910	9.9409
8.1251	1.7952	0.6353	10.2747
8.1301	-1.0211	-1.2784	11.2809
8.1351	2.3432	-1.2479	9.0089
8.1401	-0.9769	1.4010	10.3076
8.1451	0.5521	-0.4887	9.8033
8.1501	0.9769	-0.0891	9.2506
8.1551	-0.8381	0.4086	13.0929
8.1601	1.2048	-1.4913	9.6442
8.1651	-0.2483	1.2945	10.0121
8.1701	2.4508	-0.5880	9.8548
8.1751	0.8387	1.2024	9.0311
8.1801	-1.6373	-0.4283	10.4404
8.1851	0.1184	-1.1156	9.6496
8.1901	-0.1842	1.4692	8.7003
8.1951	0.0676	-1.6355	8.2504
8.2001	1.4937	0.5246	8.1858
8.2051	-0.7830	-0.4146	11.9270
8.2101	2.1966	-0.0580	9.0843
8.2151	0.5342	0.9529	11.7978
8.2201	0.0335	1.0983	9.7962
8.2251	0.4481	0.9033	7.8377
8.2301	-0.4158	0.6377	10.7886
8.2351	1.4859	0.8524	8.4209
8.2401	0.7669	1.1814	9.0101
8.2451	1.5697	-0.1172	9.2339
8.2501	1.0821	2.2528	7.8843
8.2551	1.1007	0.4385	11.1439
8.2601	0.7274	1.2329	9.9056
8.2651	-0.3033	0.6526	9.0257
8.2701	1.0140	-0.1860	9.3577
8.2751	1.2580	1.0265	8.7828
8.2801	0.2070	0.5952	8.7367
8.2851	1.7085	0.3559	8.0901
8.2901	0.4804	0.0586	9.6269
8.2951	0.4612	1.0810	10.0953
8.3001	0.3912	-0.4624	9.2057
8.3051	0.2758	0.7645	10.4709
8.3101	2.3049	0.5832	8.7445
8.3151	0.8692	1.2664	9.6173
8.3201	1.8185	-0.5557	8.9001
8.3251	0.7519	1.0552	8.5124
8.3301	0.6455	-0.0138	9.8991
8.3351	0.2381	-0.0413	11.5411
8.3401	1.0211	-0.5025	9.6580
8.3451	1.2688	0.5659	10.4847
