time	accelx	accely	accelz
0.0000	0.7160	0.2423	9.6580
0.0050	0.6706	0.2614	9.6610
0.0100	0.6772	0.2393	9.6526
0.0150	0.6963	0.2327	9.6430
0.0200	0.6688	0.2566	9.6293
0.0250	0.6957	0.2506	9.6203
0.0300	0.6784	0.2602	9.5958
0.0350	0.6616	0.2453	9.6185
0.0400	0.6909	0.2495	9.6370
0.0450	0.6945	0.2447	9.6538
0.0500	0.6981	0.2489	9.6436
0.0550	0.6849	0.2548	9.6454
0.0600	0.6993	0.2554	9.6514
0.0650	0.6628	0.2626	9.6329
0.0700	0.6945	0.2489	9.6813
0.0750	0.6861	0.2554	9.4965
0.0800	0.6933	0.2560	9.6370
0.0850	0.6891	0.2500	9.6370
0.0900	0.6688	0.2788	9.6502
0.0950	0.6718	0.2393	9.6341
0.1000	0.6508	0.2650	9.6191
0.1050	0.6688	0.2471	9.6352
0.1100	0.6879	0.2530	9.6693
0.1150	0.6562	0.2644	9.6317
0.1200	0.6820	0.2333	9.7088
0.1250	0.6855	0.2471	9.6616
0.1300	0.6748	0.2477	9.6436
0.1350	0.6754	0.2554	9.6574
0.1400	0.6921	0.2536	9.6394
0.1450	0.6814	0.2405	9.6227
0.1500	0.6748	0.2411	9.5970
0.1550	0.6903	0.2548	9.6741
0.1600	0.6855	0.2345	9.6227
0.1650	0.6820	0.2536	9.7764
0.1700	0.7166	0.2566	9.6454
0.1750	0.6814	0.2590	9.6041
0.1800	0.6754	0.2560	9.6520
0.1850	0.6772	0.2656	9.5617
0.1900	0.6664	0.2524	9.6406
0.1950	0.6514	0.2548	9.6460
0.2000	0.6688	0.2435	9.6562
0.2050	0.6616	0.2393	9.6275
0.2100	0.7005	0.2524	9.6263
0.2150	0.6820	0.2483	9.5820
0.2200	0.7029	0.2548	9.6239
0.2250	0.7041	0.2638	9.6538
0.2300	0.6694	0.2524	9.6388
0.2350	0.6724	0.2847	9.6496
0.2400	0.6945	0.2405	9.6287
0.2450	0.6628	0.2429	9.6544
0.2500	0.6879	0.2596	9.6562
0.2550	0.6802	0.2453	9.6364
0.2600	0.6808	0.2471	9.6813
0.2650	0.6993	0.2560	9.5982
0.2700	0.6855	0.2387	9.6239
0.2750	0.6706	0.2279	9.6299
0.2800	0.6682	0.2542	9.6323
0.2850	0.6556	0.2566	9.5940
0.2900	0.6790	0.2656	9.6394
0.2950	0.6903	0.2297	9.6239
0.3000	0.6544	0.2620	9.5832
0.3050	0.6897	0.2524	9.6233
0.3100	0.6455	0.2453	9.6065
0.3150	0.6885	0.2506	9.6287
0.3200	0.6748	0.2518	9.6556
0.3250	0.6293	0.2536	9.5856
0.3300	0.6622	0.2632	9.6203
0.3350	0.7089	0.2734	9.6227
0.3400	0.6790	0.2327	9.6723
0.3450	0.7029	0.2596	9.6478
0.3500	0.6766	0.2692	9.5635
0.3550	0.6772	0.2524	9.6023
0.3600	0.6855	0.2680	9.6263
0.3650	0.6682	0.2465	9.6293
0.3700	0.6730	0.2626	9.6400
0.3750	0.6891	0.2638	9.6526
0.3800	0.6682	0.2471	9.5916
0.3850	0.6879	0.2435	9.6341
0.3900	0.7190	0.2590	9.6604
0.3950	0.6909	0.2435	9.6508
0.4000	0.6712	0.2381	9.6622
0.4050	0.6849	0.2794	9.6185
0.4100	0.7023	0.2518	9.6269
0.4150	0.6694	0.2506	9.6460
0.4200	0.6592	0.2740	9.6059
0.4250	0.6831	0.2560	9.6317
0.4300	0.6772	0.2542	9.6221
0.4350	0.6724	0.2381	9.6293
0.4400	0.6754	0.2506	9.6293
0.4450	0.6855	0.2560	9.6424
0.4500	0.6843	0.2387	9.6352
0.4550	0.6951	0.2387	9.6388
0.4600	0.6754	0.2465	9.6227
0.4650	0.6670	0.2698	9.6173
0.4700	0.6897	0.2806	9.6203
0.4750	0.6724	0.2560	9.6604
0.4800	0.6532	0.2560	9.6388
0.4850	0.6544	0.2399	9.6251
0.4900	0.6676	0.2405	9.6394
0.4950	0.6897	0.2512	9.6376
0.5000	0.6772	0.2489	9.6263
0.5050	0.6879	0.2387	9.6951
0.5100	0.6915	0.2632	9.6454
0.5150	0.6736	0.2512	9.6131
0.5200	0.6748	0.2500	9.6370
0.5250	0.6867	0.2572	9.6185
0.5300	0.6634	0.2375	9.6323
0.5350	0.6945	0.2650	9.5958
0.5400	0.6975	0.2387	9.6508
0.5450	0.6586	0.2662	9.6490
0.5500	0.6915	0.2692	9.6466
0.5550	0.7047	0.2393	9.6335
0.5600	0.6861	0.2602	9.6616
0.5650	0.6790	0.2417	9.6424
0.5700	0.6933	0.2548	9.6215
0.5750	0.6772	0.2506	9.6245
0.5800	0.6610	0.2566	9.6006
0.5850	0.6867	0.2429	9.6454
0.5900	0.6999	0.2435	9.6269
0.5950	0.6425	0.2518	9.6891
0.6000	0.6855	0.2524	9.6412
0.6050	0.6616	0.2710	9.6000
0.6100	0.7005	0.2500	9.6466
0.6150	0.6712	0.2704	9.6346
0.6200	0.6909	0.2554	9.6233
0.6250	0.6730	0.2423	9.6705
0.6300	0.6879	0.2411	9.6424
0.6350	0.6802	0.2423	9.6376
0.6400	0.6634	0.2650	9.5001
0.6450	0.7107	0.2536	9.6783
0.6500	0.6897	0.2237	9.6526
0.6550	0.6766	0.2644	9.6239
0.6600	0.7017	0.2668	9.6358
0.6650	0.7017	0.2560	9.6329
0.6700	0.6879	0.2542	9.6933
0.6750	0.6748	0.2782	9.6107
0.6800	0.6843	0.2477	9.6358
0.6850	0.6652	0.2626	9.6346
0.6900	0.6766	0.2411	9.6550
0.6950	0.6664	0.2692	9.6299
0.7000	0.6718	0.2596	9.6299
0.7050	0.6634	0.2530	9.6388
0.7100	0.6574	0.2734	9.6155
0.7150	0.6682	0.2590	9.6077
0.7200	0.6843	0.2548	9.6119
0.7250	0.7149	0.2465	9.6346
0.7300	0.6574	0.2399	9.6191
0.7350	0.6616	0.2638	9.5712
0.7400	0.6957	0.2506	9.6640
0.7450	0.7017	0.2417	9.6305
0.7500	0.6772	0.2572	9.6783
0.7550	0.6820	0.2495	9.6281
0.7600	0.6562	0.2512	9.6239
0.7650	0.6897	0.2560	9.6514
0.7700	0.6670	0.2459	9.6556
0.7750	0.6796	0.2518	9.6765
0.7800	0.6861	0.2752	9.6029
0.7850	0.6622	0.2225	9.6311
0.7900	0.6610	0.2500	9.6454
0.7950	0.6951	0.2626	9.6197
0.8000	0.6736	0.2249	9.6975
0.8050	0.6855	0.2417	9.6227
0.8100	0.6897	0.2608	9.6634
0.8150	0.6814	0.2566	9.6436
0.8200	0.6664	0.2572	9.6550
0.8250	0.6778	0.2650	9.6083
0.8300	0.6867	0.2495	9.6508
0.8350	0.6861	0.2596	9.6382
0.8400	0.6377	0.2602	9.5886
0.8450	0.6670	0.2566	9.6245
0.8500	0.6861	0.2495	9.6035
0.8550	0.6790	0.2339	9.6843
0.8600	0.6556	0.2399	9.6484
0.8650	0.6502	0.2512	9.5443
0.8700	0.7089	0.2369	9.6341
0.8750	0.6688	0.2656	9.6317
0.8800	0.6778	0.2477	9.6275
0.8850	0.6915	0.2548	9.6478
0.8900	0.6796	0.2429	9.6586
0.8950	0.6431	0.2542	9.6233
0.9000	0.7023	0.2512	9.5796
0.9050	0.6766	0.2566	9.6143
0.9100	0.6604	0.2602	9.6424
0.9150	0.6831	0.2411	9.6400
0.9200	0.6820	0.2746	9.6245
0.9250	0.6592	0.2650	9.6131
0.9300	0.6634	0.2626	9.6323
0.9350	0.6736	0.2602	9.6047
0.9400	0.6718	0.2554	9.6861
0.9450	0.6712	0.2351	9.6460
0.9500	0.6849	0.2399	9.6233
0.9550	0.6772	0.2566	9.6197
0.9600	0.6915	0.2393	9.6239
0.9650	0.6790	0.2423	9.6305
0.9700	0.6766	0.2578	9.5706
0.9750	0.6730	0.2572	9.6263
0.9800	0.6676	0.2662	9.6275
0.9850	0.6945	0.2417	9.6143
0.9900	0.6909	0.2506	9.6574
0.9950	0.6891	0.2405	9.5886
1.0000	0.6730	0.2459	9.6382
1.0050	0.7017	0.2686	9.6167
1.0100	0.6891	0.2429	9.6233
1.0150	0.7119	0.2578	9.6305
1.0200	0.6730	0.2650	9.6472
1.0250	0.6736	0.2578	9.6125
1.0300	0.6814	0.2189	9.6352
1.0350	0.6951	0.2620	9.5982
1.0400	0.6915	0.2471	9.6508
1.0450	0.6879	0.2524	9.6400
1.0500	0.6951	0.2626	9.6245
1.0550	0.6933	0.2339	9.6628
1.0600	0.6760	0.2572	9.6586
1.0650	0.7155	0.2447	9.6329
1.0700	0.6802	0.2566	9.6179
1.0750	0.6903	0.2459	9.6424
1.0800	0.6748	0.2614	9.6568
1.0850	0.6873	0.2459	9.6161
1.0900	0.6808	0.2381	9.6466
1.0950	0.6622	0.2758	9.6358
1.1000	0.6957	0.2381	9.6514
1.1050	0.6664	0.2500	9.6311
1.1100	0.6820	0.2447	9.6358
1.1150	0.6921	0.2506	9.6185
1.1200	0.7155	0.2315	9.6568
1.1250	0.6808	0.2405	9.6047
1.1300	0.6682	0.2650	9.6335
1.1350	0.6778	0.2405	9.7148
1.1400	0.6903	0.2584	9.5976
1.1450	0.6616	0.2644	9.6520
1.1500	0.6544	0.2590	9.6652
1.1550	0.6568	0.2495	9.6131
1.1600	0.6820	0.2524	9.6364
1.1650	0.6867	0.2590	9.4995
1.1700	0.6778	0.2674	9.6394
1.1750	0.6682	0.2518	9.6017
1.1800	0.6754	0.2824	9.6173
1.1850	0.6718	0.2812	9.6364
1.1900	0.6508	0.2459	9.5982
1.1950	0.6532	0.2429	9.6257
1.2000	0.7095	0.2704	9.5874
1.2050	0.6897	0.2548	9.6341
1.2100	0.6688	0.2716	9.6167
1.2150	0.6796	0.2584	9.6035
1.2200	0.6610	0.2530	9.6155
1.2250	0.6802	0.2333	9.6000
1.2300	0.6688	0.2495	9.6107
1.2350	0.6987	0.2500	9.6101
1.2400	0.6694	0.2530	9.6185
1.2450	0.6903	0.2309	9.6448
1.2500	0.6425	0.2566	9.6370
1.2550	0.6508	0.2471	9.7896
1.2600	0.6999	0.2536	9.6329
1.2650	0.6975	0.2512	9.6532
1.2700	0.6532	0.2512	9.6466
1.2750	0.6808	0.2632	9.5754
1.2800	0.6957	0.2524	9.6388
1.2850	0.6736	0.2447	9.6592
1.2900	0.7065	0.2459	9.5916
1.2950	0.6604	0.2459	9.6341
1.3000	0.6425	0.2794	9.6400
1.3050	0.6837	0.2572	9.6215
1.3100	0.6796	0.2405	9.5988
1.3150	0.6808	0.2614	9.6604
1.3200	0.6604	0.2512	9.6448
1.3250	0.6957	0.2471	9.6430
1.3300	0.6969	0.2530	9.6472
1.3350	0.6802	0.2500	9.6155
1.3400	0.6820	0.2524	9.7142
1.3450	0.6951	0.2632	9.7734
1.3500	0.6909	0.2453	9.6741
1.3550	0.6640	0.2716	9.6370
1.3600	0.6700	0.2471	9.6269
1.3650	0.6837	0.2518	9.6137
1.3700	0.6718	0.2644	9.6167
1.3750	0.6957	0.2435	9.6460
1.3800	0.6742	0.2483	9.6765
1.3850	0.7089	0.2465	9.6341
1.3900	0.6592	0.2566	9.6089
1.3950	0.6670	0.2405	9.6335
1.4000	0.6993	0.2465	9.6000
1.4050	0.6718	0.2512	9.5796
1.4100	0.6867	0.2506	9.6239
1.4150	0.6837	0.2477	9.6137
1.4200	0.6760	0.2626	9.6035
1.4250	0.6814	0.2572	9.6466
1.4300	0.6766	0.2441	9.6173
1.4350	0.6873	0.2495	9.6251
1.4400	0.6855	0.2483	9.6197
1.4450	0.6933	0.2393	9.6197
1.4500	0.6957	0.2572	9.6418
1.4550	0.7220	0.2758	9.6813
1.4600	0.6837	0.2423	9.6065
1.4650	0.6712	0.2728	9.6406
1.4700	0.6957	0.2572	9.6376
1.4750	0.6849	0.2530	9.6245
1.4800	0.6861	0.2477	9.6119
1.4850	0.6903	0.2626	9.6544
1.4900	0.6993	0.2411	9.6442
1.4950	0.6825	0.2566	9.5988
1.5000	0.6808	0.2518	9.6173
1.5050	0.7065	0.2471	9.6125
1.5100	0.6772	0.2602	9.6149
1.5150	0.6724	0.2644	9.6574
1.5200	0.6748	0.2638	9.6436
1.5250	0.6873	0.2339	9.6113
1.5300	0.6820	0.2483	9.6305
1.5350	0.6843	0.2512	9.6275
1.5400	0.6867	0.2614	9.6658
1.5450	0.6849	0.2459	9.6376
1.5500	0.6724	0.2369	9.6335
1.5550	0.7083	0.2489	9.6101
1.5600	0.6879	0.2465	9.6526
1.5650	0.6903	0.2632	9.6370
1.5700	0.6766	0.2512	9.6352
1.5750	0.6981	0.2572	9.6305
1.5800	0.6407	0.2566	9.6089
1.5850	0.6592	0.2602	9.6472
1.5900	0.6820	0.2650	9.6317
1.5950	0.6915	0.2644	9.6287
1.6000	0.6664	0.2536	9.5934
1.6050	0.6843	0.2417	9.6430
1.6100	0.6640	0.2614	9.6598
1.6150	0.6562	0.2590	9.6209
1.6200	0.6694	0.2512	9.6658
1.6250	0.6820	0.2399	9.6329
1.6300	0.6718	0.2327	9.6329
1.6350	0.6592	0.2728	9.6089
1.6400	0.6712	0.2411	9.6029
1.6450	0.6873	0.2650	9.6670
1.6500	0.6825	0.2596	9.6622
1.6550	0.6724	0.2459	9.6532
1.6600	0.6772	0.2632	9.6323
1.6650	0.6820	0.2435	9.6197
1.6700	0.6682	0.2608	9.6406
1.6750	0.7095	0.2536	9.6448
1.6800	0.6927	0.2506	9.6287
1.6850	0.6784	0.2417	9.6227
1.6900	0.6592	0.2333	9.6293
1.6950	0.6837	0.2429	9.6478
1.7000	0.6748	0.2698	9.6472
1.7050	0.6903	0.2453	9.6424
1.7100	0.6694	0.2524	9.6095
1.7150	0.6580	0.2357	9.6071
1.7200	0.6682	0.2656	9.6472
1.7250	0.6843	0.2584	9.6370
1.7300	0.6598	0.2602	9.6496
1.7350	0.6933	0.2626	9.6341
1.7400	0.6933	0.2536	9.6311
1.7450	0.6814	0.2524	9.6526
1.7500	0.6825	0.2512	9.6843
1.7550	0.6766	0.2584	9.4947
1.7600	0.6790	0.2441	9.6311
1.7650	0.6837	0.2824	9.6185
1.7700	0.6706	0.2596	9.6293
1.7750	0.6790	0.2566	9.6759
1.7800	0.6676	0.2417	9.6472
1.7850	0.6796	0.2566	9.6323
1.7900	0.6778	0.2596	9.6269
1.7950	0.6646	0.2429	9.6251
1.8000	0.6652	0.2536	9.6323
1.8050	0.6849	0.2596	9.6448
1.8100	0.7101	0.2554	9.6197
1.8150	0.6742	0.2554	9.6155
1.8200	0.6706	0.2441	9.6364
1.8250	0.6849	0.2548	9.6388
1.8300	0.6736	0.2554	9.6329
1.8350	0.6748	0.2363	9.6616
1.8400	0.7059	0.2644	9.6227
1.8450	0.6556	0.2662	9.6406
1.8500	0.6712	0.2812	9.6562
1.8550	0.6784	0.2632	9.6012
1.8600	0.6951	0.2405	9.6418
1.8650	0.6861	0.2644	9.6209
1.8700	0.6784	0.2399	9.6173
1.8750	0.6891	0.2632	9.6658
1.8800	0.6808	0.2698	9.6508
1.8850	0.7095	0.2423	9.6346
1.8900	0.6718	0.2602	9.6317
1.8950	0.7041	0.2471	9.6502
1.9000	0.6730	0.2435	9.6705
1.9050	0.6820	0.2638	9.6544
1.9100	0.6580	0.2632	9.6317
1.9150	0.6437	0.2417	9.6012
1.9200	0.6730	0.2584	9.6448
1.9250	0.6843	0.2405	9.6203
1.9300	0.6730	0.2500	9.6305
1.9350	0.6700	0.2459	9.6239
1.9400	0.6760	0.2656	9.6293
1.9450	0.6820	0.2584	9.6095
1.9500	0.6724	0.2584	9.6358
1.9550	0.6915	0.2345	9.6753
1.9600	0.6825	0.2536	9.6203
1.9650	0.7053	0.2453	9.6107
1.9700	0.6879	0.2530	9.5796
1.9750	0.6909	0.2435	9.5970
1.9800	0.6766	0.2710	9.6155
1.9850	0.6688	0.2459	9.6502
1.9900	0.6652	0.2339	9.6257
1.9950	0.6682	0.2375	9.5802
2.0000	0.6915	0.2345	9.6059
2.0050	0.6825	0.2447	9.6532
2.0100	0.6778	0.2524	9.6287
2.0150	0.6975	0.2578	9.6436
2.0200	0.6981	0.2423	9.6430
2.0250	0.6688	0.2512	9.6239
2.0300	0.6951	0.2668	9.6221
2.0350	0.7071	0.2650	9.6394
2.0400	0.6556	0.2506	9.6245
2.0450	0.6766	0.2536	9.6083
2.0500	0.6837	0.2680	9.6233
2.0550	0.6760	0.2489	9.6544
2.0600	0.6897	0.2381	9.6203
2.0650	0.6808	0.2626	9.6382
2.0700	0.6766	0.2542	9.6580
2.0750	0.6796	0.2512	9.6341
2.0800	0.6682	0.2638	9.6239
2.0850	0.6909	0.2518	9.6275
2.0900	0.6730	0.2704	9.6293
2.0950	0.6622	0.2542	9.6245
2.1000	0.6814	0.2626	9.6658
2.1050	0.6885	0.2524	9.6191
2.1100	0.7041	0.2698	9.6472
2.1150	0.6891	0.2554	9.6466
2.1200	0.7035	0.2578	9.6113
2.1250	0.6694	0.2650	9.6484
2.1300	0.6700	0.2369	9.6155
2.1350	0.6383	0.2680	9.5922
2.1400	0.6736	0.2435	9.6197
2.1450	0.6885	0.2644	9.6113
2.1500	0.6514	0.2548	9.6370
2.1550	0.6694	0.2650	9.6454
2.1600	0.6766	0.2351	9.6496
2.1650	0.6849	0.2518	9.6430
2.1700	0.6820	0.2453	9.6293
2.1750	0.6825	0.2626	9.6382
2.1800	0.6646	0.2626	9.6185
2.1850	0.6628	0.2650	9.5898
2.1900	0.6778	0.2656	9.6305
2.1950	0.7083	0.2596	9.6143
2.2000	0.6825	0.2566	9.6251
2.2050	0.6885	0.2321	9.6424
2.2100	0.6496	0.2608	9.5808
2.2150	0.6933	0.2399	9.6430
2.2200	0.6778	0.2465	9.6634
2.2250	0.6831	0.2518	9.6664
2.2300	0.6772	0.2261	9.6616
2.2350	0.6748	0.2770	9.6227
2.2400	0.6718	0.2638	9.6239
2.2450	0.6574	0.2465	9.6191
2.2500	0.7071	0.2566	9.6508
2.2550	0.6568	0.2560	9.6203
2.2600	0.6580	0.2483	9.6550
2.2650	0.6622	0.2626	9.6317
2.2700	0.6748	0.2590	9.6430
2.2750	0.6473	0.2620	9.6376
2.2800	0.6891	0.2560	9.6502
2.2850	0.6796	0.2536	9.6155
2.2900	0.6820	0.2608	9.6424
2.2950	0.6784	0.2530	9.6281
2.3000	0.6724	0.2303	9.6233
2.3050	0.6897	0.2387	9.6789
2.3100	0.6796	0.2698	9.6059
2.3150	0.6772	0.2441	9.5479
2.3200	0.6550	0.2716	9.6179
2.3250	0.7160	0.2716	9.6568
2.3300	0.6843	0.2590	9.6317
2.3350	0.7041	0.2674	9.6161
2.3400	0.6879	0.2369	9.6329
2.3450	0.6748	0.2602	9.6287
2.3500	0.6760	0.2285	9.6275
2.3550	0.6742	0.2656	9.6023
2.3600	0.6694	0.2477	9.6257
2.3650	0.6790	0.2566	9.6526
2.3700	0.6969	0.2417	9.6269
2.3750	0.6814	0.2285	9.6047
2.3800	0.7029	0.2554	9.6329
2.3850	0.6790	0.2399	9.6239
2.3900	0.6616	0.2512	9.6496
2.3950	0.6730	0.2566	9.6610
2.4000	0.6927	0.2489	9.6275
2.4050	0.6586	0.2357	9.6287
2.4100	0.6951	0.2459	9.6346
2.4150	0.6742	0.2489	9.6203
2.4200	0.6586	0.2530	9.6640
2.4250	0.6778	0.2554	9.6490
2.4300	0.6724	0.2536	9.6502
2.4350	0.6766	0.2542	9.6161
2.4400	0.6837	0.2638	9.6299
2.4450	0.6658	0.2578	9.6119
2.4500	0.6802	0.2572	9.6287
2.4550	0.6909	0.2417	9.6233
2.4600	0.6843	0.2429	9.7698
2.4650	0.6939	0.2764	9.6556
2.4700	0.6736	0.2602	9.6089
2.4750	0.6808	0.2560	9.6191
2.4800	0.6706	0.2530	9.6137
2.4850	0.6802	0.2495	9.6466
2.4900	0.7041	0.2608	9.6131
2.4950	0.6951	0.2303	9.6376
2.5000	0.6790	0.2477	9.6771
2.5050	0.6855	0.2638	9.5736
2.5100	0.6897	0.2506	9.6556
2.5150	0.6909	0.2411	9.6287
2.5200	0.6796	0.2297	9.6532
2.5250	0.6915	0.2548	9.6293
2.5300	0.6903	0.2381	9.6394
2.5350	0.6873	0.2548	9.6520
2.5400	0.6772	0.2447	9.6352
2.5450	0.6688	0.2530	9.6035
2.5500	0.6772	0.2309	9.6287
2.5550	0.7065	0.2429	9.6460
2.5600	0.6861	0.2668	9.6436
2.5650	0.6628	0.2512	9.6215
2.5700	0.7364	0.2285	9.6580
2.5750	0.6820	0.2423	9.6263
2.5800	0.6939	0.2614	9.6783
2.5850	0.6712	0.2489	9.6065
2.5900	0.6885	0.2405	9.6490
2.5950	0.6598	0.2387	9.6179
2.6000	0.7029	0.2500	9.6514
2.6050	0.6820	0.2536	9.5910
2.6100	0.6778	0.2465	9.6083
2.6150	0.6814	0.2267	9.7920
2.6200	0.6915	0.2602	9.5850
2.6250	0.6670	0.2626	9.6006
2.6300	0.6604	0.2369	9.6376
2.6350	0.7190	0.2339	9.6430
2.6400	0.6784	0.2518	9.7824
2.6450	0.6820	0.2453	9.6209
2.6500	0.6754	0.2650	9.6562
2.6550	0.6676	0.2500	9.6185
2.6600	0.7089	0.2465	9.6927
2.6650	0.6628	0.2423	9.6448
2.6700	0.6646	0.2542	9.6131
2.6750	0.6808	0.2536	9.6364
2.6800	0.6760	0.2572	9.6424
2.6850	0.6664	0.2465	9.6628
2.6900	0.6676	0.2740	9.5934
2.6950	0.6724	0.2518	9.6221
2.7000	0.6556	0.2644	9.6012
2.7050	0.6676	0.2393	9.6370
2.7100	0.6778	0.2363	9.6352
2.7150	0.6927	0.2459	9.6508
2.7200	0.7208	0.2417	9.6508
2.7250	0.6754	0.2764	9.6299
2.7300	0.6814	0.2542	9.6311
2.7350	0.6544	0.2483	9.5856
2.7400	0.6867	0.2345	9.6472
2.7450	0.6538	0.2590	9.6035
2.7500	0.6670	0.2495	9.6329
2.7550	0.6975	0.2542	9.6699
2.7600	0.6778	0.2393	9.6155
2.7650	0.6646	0.2489	9.6388
2.7700	0.6855	0.2483	9.6041
2.7750	0.7059	0.2429	9.6305
2.7800	0.6772	0.2411	9.6107
2.7850	0.6879	0.2405	9.6538
2.7900	0.6861	0.2411	9.6436
2.7950	0.6867	0.2518	9.6400
2.8000	0.6700	0.2495	9.6323
2.8050	0.6742	0.2536	9.6329
2.8100	0.6706	0.2620	9.6083
2.8150	0.6419	0.2405	9.6000
2.8200	0.6556	0.2530	9.6346
2.8250	0.7250	0.2375	9.7022
2.8300	0.6748	0.2441	9.6203
2.8350	0.6837	0.2429	9.6311
2.8400	0.7047	0.2590	9.6083
2.8450	0.6820	0.2614	9.6329
2.8500	0.6837	0.2477	9.6634
2.8550	0.6544	0.2662	9.6119
2.8600	0.6867	0.2369	9.6400
2.8650	0.6526	0.2680	9.6047
2.8700	0.6867	0.2381	9.6287
2.8750	0.6921	0.2381	9.6197
2.8800	0.6843	0.2632	9.6771
2.8850	0.6903	0.2435	9.6436
2.8900	0.6461	0.2620	9.5724
2.8950	0.6766	0.2453	9.6795
2.9000	0.6778	0.2441	9.6346
2.9050	0.6598	0.2506	9.6592
2.9100	0.6814	0.2560	9.7669
2.9150	0.7137	0.2560	9.6329
2.9200	0.6556	0.2231	9.6341
2.9250	0.6909	0.2554	9.6239
2.9300	0.6808	0.2536	9.5994
2.9350	0.6873	0.2489	9.6239
2.9400	0.7071	0.2674	9.6771
2.9450	0.6634	0.2500	9.6382
2.9500	0.6562	0.2375	9.6275
2.9550	0.7119	0.2578	9.6346
2.9600	0.6754	0.2387	9.6095
2.9650	0.6790	0.2632	9.6197
2.9700	0.6622	0.2471	9.5820
2.9750	0.6909	0.2548	9.6233
2.9800	0.6628	0.2435	9.6173
2.9850	0.6909	0.2584	9.6538
2.9900	0.6879	0.2530	9.6466
2.9950	0.6754	0.2632	9.6376
3.0000	0.6760	0.2357	9.6137
3.0050	0.6598	0.2584	9.6490
3.0100	0.6861	0.2608	9.6071
3.0150	0.6556	0.2512	9.6149
3.0200	0.6939	0.2686	9.6933
3.0250	0.6682	0.2530	9.6400
3.0300	0.7113	0.2548	9.6412
3.0350	0.6670	0.2572	9.6556
3.0400	0.6933	0.2530	9.6394
3.0450	0.6628	0.2363	9.6412
3.0500	0.6993	0.2668	9.6269
3.0550	0.6676	0.2614	9.5910
3.0600	0.6933	0.2465	9.6263
3.0650	0.6909	0.2602	9.6394
3.0700	0.6873	0.2399	9.6263
3.0750	0.6820	0.2644	9.6723
3.0800	0.7005	0.2381	9.6646
3.0850	0.7089	0.2584	9.6352
3.0900	0.6736	0.2405	9.6376
3.0950	0.7125	0.2518	9.6550
3.1000	0.6820	0.2584	9.6251
3.1050	0.6736	0.2453	9.6562
3.1100	0.6808	0.2967	9.5856
3.1150	0.6754	0.2345	9.6329
3.1200	0.7071	0.2435	9.6490
3.1250	0.6682	0.2686	9.6293
3.1300	0.6969	0.2572	9.6317
3.1350	0.6634	0.2614	9.6203
3.1400	0.6867	0.2423	9.6167
3.1450	0.6885	0.2351	9.6699
3.1500	0.6796	0.2518	9.5940
3.1550	0.6622	0.2542	9.6472
3.1600	0.6718	0.2405	9.6795
3.1650	0.6820	0.2560	9.6370
3.1700	0.6742	0.2417	9.6281
3.1750	0.6814	0.2249	9.6287
3.1800	0.6951	0.2554	9.6311
3.1850	0.6550	0.2584	9.5832
3.1900	0.6814	0.2447	9.6741
3.1950	0.6808	0.2542	9.6215
3.2000	0.6921	0.2495	9.6089
3.2050	0.6897	0.2387	9.6442
3.2100	0.6712	0.2459	9.6006
3.2150	0.6814	0.2506	9.6634
3.2200	0.6969	0.2506	9.6382
3.2250	0.6616	0.2572	9.6053
3.2300	0.6909	0.2572	9.6442
3.2350	0.6730	0.2722	9.6442
3.2400	0.6652	0.2548	9.6616
3.2450	0.6790	0.2674	9.6006
3.2500	0.7370	0.2351	9.6723
3.2550	0.6891	0.2722	9.5856
3.2600	0.6688	0.2584	9.6508
3.2650	0.6778	0.2650	9.5982
3.2700	0.7113	0.2327	9.6341
3.2750	0.6802	0.2668	9.6526
3.2800	0.6945	0.2530	9.5838
3.2850	0.6784	0.2518	9.6789
3.2900	0.6999	0.2500	9.6586
3.2950	0.6736	0.2578	9.6640
3.3000	0.6718	0.2530	9.6023
3.3050	0.6664	0.2578	9.6263
3.3100	0.7071	0.2477	9.6329
3.3150	0.6383	0.2578	9.6149
3.3200	0.6831	0.2536	9.7968
3.3250	0.6831	0.2429	9.6376
3.3300	0.6748	0.2572	9.6370
3.3350	0.6622	0.2471	9.6155
3.3400	0.6712	0.2303	9.6089
3.3450	0.6951	0.2626	9.7830
3.3500	0.6909	0.2662	9.6305
3.3550	0.6808	0.2518	9.6101
3.3600	0.6766	0.2518	9.6107
3.3650	0.6814	0.2686	9.6335
3.3700	0.6831	0.2447	9.6711
3.3750	0.6550	0.2764	9.5934
3.3800	0.6939	0.2728	9.6209
3.3850	0.6778	0.2399	9.6299
3.3900	0.6897	0.2495	9.6681
3.3950	0.6538	0.2453	9.6029
3.4000	0.6802	0.2369	9.6436
3.4050	0.6784	0.2632	9.6341
3.4100	0.6903	0.2387	9.6185
3.4150	0.6939	0.2297	9.6705
3.4200	0.6616	0.2620	9.6550
3.4250	0.6963	0.2512	9.6257
3.4300	0.6658	0.2471	9.6329
3.4350	0.6706	0.2393	9.6317
3.4400	0.6802	0.2375	9.6125
3.4450	0.6825	0.2369	9.6574
3.4500	0.6712	0.2542	9.6436
3.4550	0.6933	0.2674	9.6125
3.4600	0.7023	0.2453	9.6364
3.4650	0.6730	0.2465	9.6586
3.4700	0.6814	0.2321	9.6364
3.4750	0.6933	0.2333	9.6227
3.4800	0.6712	0.2542	9.5826
3.4850	0.6921	0.2596	9.6424
3.4900	0.6814	0.2405	9.6388
3.4950	0.6353	0.2303	9.6203
3.5000	0.6682	0.2495	9.6478
3.5050	0.7023	0.2614	9.6299
3.5100	0.6778	0.2554	9.6191
3.5150	0.6736	0.2584	9.6370
3.5200	0.6951	0.2638	9.6430
3.5250	0.6993	0.2626	9.6251
3.5300	0.7119	0.2518	9.6622
3.5350	0.6951	0.2429	9.6358
3.5400	0.6610	0.2459	9.6221
3.5450	0.7065	0.2447	9.6562
3.5500	0.6778	0.2447	9.6041
3.5550	0.6496	0.2572	9.6520
3.5600	0.6610	0.2734	9.5760
3.5650	0.6520	0.2477	9.6454
3.5700	0.6652	0.2512	9.6502
3.5750	0.7119	0.2411	9.6203
3.5800	0.6861	0.2650	9.6185
3.5850	0.6730	0.2758	9.6197
3.5900	0.6742	0.2644	9.6556
3.5950	0.6945	0.2339	9.6125
3.6000	0.6879	0.2542	9.5976
3.6050	0.6843	0.2429	9.6287
3.6100	0.6748	0.2381	9.6071
3.6150	0.6784	0.2512	9.6191
3.6200	0.6933	0.2554	9.6370
3.6250	0.6754	0.2441	9.6023
3.6300	0.6873	0.2626	9.6478
3.6350	0.6903	0.2273	9.6448
3.6400	0.6772	0.2686	9.7686
3.6450	0.6825	0.2554	9.6424
3.6500	0.6718	0.2500	9.6257
3.6550	0.6778	0.2638	9.6341
3.6600	0.6610	0.2512	9.6227
3.6650	0.6682	0.2411	9.6335
3.6700	0.6784	0.2554	9.6041
3.6750	0.6796	0.2584	9.6065
3.6800	0.6772	0.2500	9.6341
3.6850	0.6574	0.2548	9.6107
3.6900	0.6891	0.2273	9.6317
3.6950	0.6706	0.2536	9.6155
3.7000	0.7029	0.2584	9.6245
3.7050	0.6772	0.2638	9.5928
3.7100	0.6897	0.2477	9.6729
3.7150	0.6969	0.2524	9.6658
3.7200	0.6951	0.2381	9.6029
3.7250	0.6742	0.2620	9.6173
3.7300	0.6981	0.2351	9.4977
3.7350	0.6969	0.2441	9.6825
3.7400	0.6951	0.2489	9.6472
3.7450	0.6897	0.2566	9.6484
3.7500	0.6485	0.2536	9.6448
3.7550	0.6760	0.2512	9.6592
3.7600	0.6508	0.2596	9.5826
3.7650	0.7089	0.2393	9.6646
3.7700	0.6867	0.2423	9.6406
3.7750	0.7041	0.2566	9.6406
3.7800	0.6933	0.2656	9.6299
3.7850	0.6861	0.2291	9.6293
3.7900	0.6622	0.2572	9.6185
3.7950	0.6670	0.2608	9.7722
3.8000	0.6855	0.2596	9.6352
3.8050	0.6754	0.2279	9.6735
3.8100	0.6975	0.2429	9.6113
3.8150	0.6808	0.2782	9.6317
3.8200	0.6538	0.2471	9.6077
3.8250	0.6820	0.2435	9.6137
3.8300	0.6658	0.2650	9.6406
3.8350	0.7053	0.2548	9.6526
3.8400	0.6688	0.2512	9.6281
3.8450	0.6670	0.2213	9.6179
3.8500	0.6544	0.2321	9.6125
3.8550	0.6873	0.2495	9.6574
3.8600	0.6628	0.2536	9.6448
3.8650	0.6467	0.2608	9.6197
3.8700	0.6694	0.2668	9.6568
3.8750	0.6814	0.2692	9.6562
3.8800	0.6670	0.2453	9.6293
3.8850	0.6784	0.2710	9.7675
3.8900	0.6921	0.2632	9.6311
3.8950	0.6766	0.2620	9.6550
3.9000	0.6796	0.2680	9.6113
3.9050	0.6706	0.2608	9.6526
3.9100	0.6969	0.2393	9.6155
3.9150	0.7190	0.2381	9.6490
3.9200	0.7071	0.2477	9.6664
3.9250	0.7005	0.2435	9.6490
3.9300	0.6335	0.2722	9.5958
3.9350	0.6915	0.2632	9.6634
3.9400	0.6808	0.2429	9.6041
3.9450	0.6831	0.2447	9.6448
3.9500	0.6957	0.2423	9.6526
3.9550	0.6843	0.2381	9.6580
3.9600	0.6658	0.2483	9.6341
3.9650	0.7035	0.2447	9.6269
3.9700	0.7232	0.2429	9.6257
3.9750	0.6790	0.2608	9.6209
3.9800	0.6927	0.2512	9.6023
3.9850	0.7005	0.2435	9.6801
3.9900	0.6945	0.2614	9.6335
3.9950	0.6616	0.2411	9.6209
4.0000	0.6814	0.2578	9.7986
4.0050	0.7023	0.2309	9.6167
4.0100	0.6808	0.2363	9.6526
4.0150	0.6873	0.2566	9.6185
4.0200	0.6455	0.2465	9.5874
4.0250	0.6700	0.2662	9.6556
4.0300	0.6993	0.2662	9.6562
4.0350	0.6772	0.2542	9.6095
4.0400	0.6706	0.2590	9.6346
4.0450	0.6622	0.2447	9.6550
4.0500	0.6736	0.2471	9.6137
4.0550	0.6987	0.2620	9.6586
4.0600	0.6598	0.2518	9.6436
4.0650	0.6754	0.2387	9.6287
4.0700	0.6688	0.2477	9.6346
4.0750	0.6885	0.2309	9.5922
4.0800	0.6688	0.2429	9.6281
4.0850	0.6975	0.2489	9.6412
4.0900	0.6742	0.2566	9.6251
4.0950	0.6634	0.2518	9.6430
4.1000	0.6688	0.2524	9.6233
4.1050	0.6622	0.2584	9.6370
4.1100	0.7107	0.2489	9.6664
4.1150	0.6879	0.2512	9.6329
4.1200	0.6676	0.2650	9.6077
4.1250	0.6784	0.2357	9.6586
4.1300	0.6646	0.2835	9.5976
4.1350	0.6999	0.2441	9.6789
4.1400	0.6939	0.2614	9.7034
4.1450	0.6933	0.2584	9.6251
4.1500	0.6796	0.2483	9.6526
4.1550	0.6712	0.2518	9.6281
4.1600	0.6993	0.2674	9.6143
4.1650	0.6766	0.2393	9.6335
4.1700	0.6760	0.2740	9.6197
4.1750	0.6676	0.2387	9.6412
4.1800	0.6574	0.2560	9.6466
4.1850	0.7065	0.2489	9.6323
4.1900	0.6742	0.2614	9.6550
4.1950	0.6820	0.2656	9.6592
4.2000	0.6891	0.2596	9.6460
4.2050	0.6933	0.2596	9.6041
4.2100	0.6903	0.2572	9.6430
4.2150	0.6772	0.2369	9.6364
4.2200	0.6790	0.2500	9.6125
4.2250	0.6365	0.2620	9.6676
4.2300	0.6939	0.2620	9.6131
4.2350	0.6987	0.2752	9.6311
4.2400	0.6628	0.2668	9.6711
4.2450	0.6790	0.2417	9.6478
4.2500	0.6449	0.2453	9.5790
4.2550	0.6784	0.2812	9.6442
4.2600	0.6634	0.2536	9.6472
4.2651	0.6532	0.2602	9.6825
4.2701	0.6670	0.2542	9.7908
4.2751	0.6664	0.2734	9.5748
4.2801	0.6825	0.2524	9.6167
4.2851	0.6508	0.2644	9.6562
4.2901	0.6718	0.2345	9.6532
4.2951	0.6915	0.2411	9.6269
4.3001	0.6730	0.2447	9.6251
4.3051	0.6843	0.2423	9.5820
4.3101	0.6808	0.2638	9.6245
4.3151	0.7095	0.2429	9.6484
4.3201	0.6652	0.2614	9.6143
4.3251	0.6736	0.2429	9.6287
4.3301	0.6796	0.2548	9.5940
4.3351	0.6879	0.2489	9.6023
4.3401	0.6520	0.2602	9.6897
4.3451	0.6831	0.2590	9.6311
4.3501	0.6897	0.2548	9.6364
4.3551	0.6915	0.2626	9.6532
4.3601	0.6933	0.2506	9.6412
4.3651	0.7095	0.2369	9.6245
4.3701	0.7196	0.2471	9.6705
4.3751	0.6814	0.2453	9.6538
4.3801	0.6742	0.2590	9.5946
4.3851	0.6915	0.2632	9.6275
4.3901	0.6843	0.2387	9.6394
4.3951	0.6987	0.2536	9.6406
4.4001	0.6694	0.2590	9.6502
4.4051	0.6796	0.2650	9.5617
4.4101	0.6724	0.2560	9.6233
4.4151	0.6802	0.2524	9.6472
4.4201	0.6670	0.2620	9.6077
4.4251	0.6736	0.2524	9.6329
4.4301	0.6544	0.2752	9.6233
4.4351	0.6921	0.2447	9.6376
4.4401	0.6831	0.2638	9.6418
4.4451	0.6820	0.2279	9.6490
4.4501	0.6843	0.2554	9.6346
4.4551	0.6772	0.2243	9.6167
4.4601	0.6688	0.2578	9.6269
4.4651	0.7101	0.2375	9.6430
4.4701	0.6682	0.2495	9.6813
4.4751	0.6772	0.2644	9.7752
4.4801	0.7184	0.2477	9.6460
4.4851	0.6616	0.2590	9.6412
4.4901	0.6790	0.2680	9.6263
4.4951	0.6700	0.2500	9.6215
4.5001	0.6748	0.2608	9.6382
4.5051	0.6855	0.2345	9.6358
4.5101	0.6927	0.2644	9.6287
4.5151	0.7011	0.2417	9.6323
4.5201	0.6772	0.2357	9.6041
4.5251	0.6831	0.2674	9.6634
4.5301	0.6969	0.2530	9.6556
4.5351	0.6897	0.2572	9.6101
4.5401	0.6897	0.2584	9.6544
4.5451	0.6867	0.2764	9.6221
4.5501	0.6742	0.2429	9.6149
4.5551	0.6825	0.2441	9.6239
4.5601	0.6574	0.2399	9.6771
4.5651	0.6825	0.2285	9.7782
4.5701	0.6706	0.2746	9.5802
4.5751	0.6748	0.2500	9.6412
4.5801	0.6772	0.2644	9.6442
4.5851	0.7041	0.2219	9.6281
4.5901	0.6604	0.2405	9.6131
4.5951	0.6861	0.2620	9.6161
4.6001	0.6814	0.2381	9.5970
4.6051	0.6957	0.2495	9.6233
4.6101	0.6945	0.2584	9.6412
4.6151	0.6903	0.2560	9.6227
4.6201	0.6586	0.2602	9.5790
4.6251	0.6808	0.2489	9.6323
4.6301	0.6820	0.2728	9.6335
4.6351	0.7041	0.2578	9.6370
4.6401	0.6730	0.2387	9.6897
4.6451	0.6927	0.2512	9.6352
4.6501	0.6784	0.2602	9.6155
4.6551	0.6963	0.2363	9.6335
4.6601	0.6849	0.2662	9.6059
4.6651	0.6802	0.2554	9.6203
4.6701	0.6951	0.2584	9.6346
4.6751	0.6658	0.2351	9.6526
4.6801	0.7023	0.2518	9.4977
4.6851	0.6885	0.2584	9.6329
4.6901	0.6975	0.2512	9.6400
4.6951	0.6544	0.2668	9.6335
4.7001	0.6790	0.2662	9.6670
4.7051	0.6796	0.2489	9.7782
4.7101	0.6903	0.2477	9.6951
4.7151	0.6831	0.2483	9.6430
4.7201	0.6891	0.2447	9.6305
4.7251	0.6514	0.2620	9.6329
4.7301	0.6628	0.2357	9.6071
4.7351	0.6688	0.2225	9.6143
4.7401	0.6849	0.2632	9.6819
4.7451	0.6652	0.2483	9.6329
4.7501	0.6514	0.2447	9.6173
4.7551	0.6837	0.2554	9.6263
4.7601	0.6933	0.2560	9.6041
4.7651	0.6467	0.2530	9.5964
4.7701	0.6706	0.2614	9.7872
4.7751	0.6658	0.2512	9.5605
4.7801	0.6604	0.2405	9.6478
4.7851	0.6796	0.2447	9.6556
4.7901	0.7053	0.2183	9.6065
4.7951	0.6748	0.2518	9.6376
4.8001	0.6766	0.2297	9.6610
4.8051	0.6790	0.2381	9.5838
4.8101	0.7059	0.2536	9.6239
4.8151	0.6652	0.2596	9.5880
4.8201	0.6718	0.2315	9.6532
4.8251	0.6843	0.2728	9.6065
4.8301	0.6975	0.2638	9.6245
4.8351	0.6849	0.2363	9.6610
4.8401	0.6556	0.2698	9.6293
4.8451	0.6843	0.2435	9.5964
4.8501	0.6820	0.2267	9.6137
4.8551	0.7113	0.2566	9.6107
4.8601	0.6622	0.2399	9.7968
4.8651	0.6945	0.2500	9.6191
4.8701	0.6855	0.2530	9.6430
4.8751	0.6808	0.2500	9.5910
4.8801	0.6849	0.2327	9.6484
4.8851	0.6766	0.2399	9.7782
4.8901	0.6963	0.2620	9.6335
4.8951	0.6754	0.2459	9.6006
4.9001	0.6951	0.2453	9.6161
4.9051	0.6861	0.2483	9.6041
4.9101	0.6628	0.2423	9.6323
4.9151	0.6562	0.2489	9.6323
4.9201	0.6963	0.2596	9.5934
4.9251	0.6730	0.2393	9.6006
4.9301	0.6604	0.2590	9.6346
4.9351	0.6730	0.2692	9.5838
4.9401	0.6933	0.2375	9.6693
4.9451	0.6688	0.2500	9.6640
4.9501	0.6652	0.2375	9.6215
4.9551	0.6670	0.2674	9.6275
4.9601	0.6700	0.2518	9.6753
4.9651	0.6837	0.2530	9.6203
4.9701	0.6951	0.2776	9.6388
4.9751	0.6897	0.2572	9.6179
4.9801	0.6897	0.2465	9.6179
4.9851	0.7047	0.2548	9.6705
4.9901	0.6939	0.2387	9.6305
4.9951	0.7017	0.2500	9.6257
5.0001	0.6861	0.2417	9.6329
5.0051	0.6837	0.2572	9.6418
5.0101	0.6790	0.2345	9.6233
5.0151	0.6802	0.2375	9.6460
5.0201	0.6969	0.2363	9.6484
5.0251	0.6909	0.2530	9.6029
5.0301	0.6622	0.2500	9.6017
5.0351	0.6790	0.2698	9.6059
5.0401	0.6640	0.2500	9.6233
5.0451	0.7131	0.2644	9.6526
5.0501	0.6808	0.2674	9.6299
5.0551	0.6622	0.2548	9.6113
5.0601	0.6849	0.2518	9.6101
5.0651	0.7035	0.2620	9.7680
5.0701	0.6981	0.2477	9.6400
5.0751	0.6670	0.2375	9.6502
5.0801	0.6837	0.2548	9.6143
5.0851	0.6610	0.2536	9.6203
5.0901	0.6688	0.2638	9.6472
5.0951	0.6825	0.2339	9.6006
5.1001	0.6843	0.2459	9.6209
5.1051	0.6999	0.2483	9.6400
5.1101	0.6658	0.2500	9.6281
5.1151	0.6706	0.2471	9.6466
5.1201	0.6808	0.2435	9.6376
5.1251	0.6772	0.2363	9.6723
5.1301	0.6772	0.2417	9.6514
5.1351	0.7095	0.2614	9.6346
5.1401	0.6796	0.2327	9.6634
5.1451	0.6754	0.2656	9.6442
5.1501	0.6891	0.2644	9.6352
5.1551	0.6754	0.2327	9.6478
5.1601	0.6532	0.2638	9.6095
5.1651	0.6861	0.2620	9.6191
5.1701	0.6658	0.2722	9.6460
5.1751	0.7071	0.2477	9.6676
5.1801	0.6778	0.2321	9.6382
5.1851	0.6646	0.2495	9.6424
5.1901	0.6682	0.2728	9.6209
5.1951	0.6736	0.2477	9.6125
5.2001	0.6790	0.2548	9.6765
5.2051	0.6682	0.2518	9.6652
5.2101	0.6772	0.2686	9.5910
5.2151	0.6700	0.2536	9.6526
5.2201	0.6670	0.2590	9.6263
5.2251	0.6760	0.2363	9.6807
5.2301	0.6670	0.2530	9.6382
5.2351	0.6999	0.2506	9.6323
5.2401	0.6754	0.2435	9.5790
5.2451	0.6694	0.2189	9.6281
5.2501	0.7184	0.2381	9.6089
5.2551	0.6915	0.2584	9.6382
5.2601	0.6670	0.2195	9.6341
5.2651	0.6957	0.2590	9.6400
5.2701	0.6574	0.2578	9.6424
5.2751	0.7113	0.2512	9.6490
5.2801	0.6933	0.2506	9.6406
5.2851	0.6778	0.2411	9.6311
5.2901	0.6664	0.2489	9.6346
5.2951	0.6885	0.2620	9.6203
5.3001	0.7214	0.2393	9.6747
5.3051	0.6861	0.2435	9.6257
5.3101	0.6604	0.2477	9.6275
5.3151	0.6526	0.2506	9.6251
5.3201	0.6778	0.2363	9.6442
5.3251	0.6568	0.2632	9.6418
5.3301	0.6724	0.2207	9.6478
5.3351	0.6867	0.2572	9.6179
5.3401	0.6496	0.2602	9.5413
5.3451	0.6921	0.2453	9.6317
5.3501	0.6598	0.2536	9.6460
5.3551	0.6646	0.2327	9.6269
5.3601	0.6879	0.2650	9.6305
5.3651	0.6820	0.2560	9.5952
5.3701	0.6837	0.2136	9.6418
5.3751	0.6682	0.2560	9.6233
5.3801	0.6951	0.2339	9.6029
5.3851	0.6718	0.2638	9.6358
5.3901	0.6808	0.2620	9.6586
5.3951	0.6718	0.2578	9.6275
5.4001	0.6885	0.2524	9.6275
5.4051	0.7101	0.2381	9.6203
5.4101	0.6808	0.2668	9.6023
5.4151	0.6736	0.2686	9.6113
5.4201	0.6712	0.2512	9.5766
5.4251	0.7131	0.2602	9.6341
5.4301	0.6556	0.2644	9.6047
5.4351	0.6622	0.2411	9.6167
5.4401	0.6622	0.2506	9.6460
5.4451	0.6993	0.2686	9.6311
5.4501	0.6778	0.2620	9.6568
5.4551	0.7155	0.2483	9.6299
5.4601	0.6915	0.2423	9.6496
5.4651	0.7143	0.2405	9.6436
5.4701	0.6742	0.2734	9.6209
5.4751	0.6814	0.2417	9.6263
5.4801	0.6837	0.2405	9.6681
5.4851	0.6945	0.2471	9.6095
5.4901	0.6634	0.2548	9.6335
5.4951	0.6867	0.2506	9.5886
5.5001	0.6401	0.2471	9.6209
5.5051	0.6772	0.2548	9.6586
5.5101	0.6927	0.2441	9.6382
5.5151	0.6820	0.2339	9.6149
5.5201	0.6467	0.2608	9.6209
5.5251	0.6664	0.2542	9.6071
5.5301	0.6814	0.2554	9.6293
5.5351	0.6873	0.2471	9.6717
5.5401	0.6730	0.2459	9.6352
5.5451	0.6520	0.2351	9.6029
5.5501	0.6969	0.2327	9.6358
5.5551	0.6993	0.2548	9.6287
5.5601	0.6520	0.2423	9.6544
5.5651	0.7101	0.2512	9.7950
5.5701	0.6885	0.2584	9.6203
5.5751	0.7059	0.2417	9.6717
5.5801	0.6754	0.2626	9.6083
5.5851	0.6580	0.2608	9.6059
5.5901	0.6909	0.2626	9.6317
5.5951	0.6891	0.2429	9.6364
5.6001	0.7041	0.2459	9.5946
5.6051	0.6730	0.2572	9.6436
5.6101	0.6634	0.2602	9.6083
5.6151	0.6867	0.2662	9.6167
5.6201	0.6670	0.2668	9.6275
5.6251	0.6646	0.2285	9.6346
5.6301	0.6825	0.2477	9.6095
5.6351	0.6610	0.2614	9.6185
5.6401	0.6921	0.2632	9.5730
5.6451	0.6867	0.2506	9.6203
5.6501	0.6861	0.2429	9.6430
5.6551	0.6479	0.2608	9.6335
5.6601	0.6921	0.2572	9.5994
5.6651	0.6772	0.2560	9.6843
5.6701	0.7095	0.2441	9.6472
5.6751	0.6634	0.2602	9.6640
5.6801	0.6909	0.2530	9.7908
5.6851	0.6790	0.2375	9.5994
5.6901	0.6879	0.2441	9.6795
5.6951	0.6921	0.2411	9.6197
5.7001	0.6808	0.2315	9.6424
5.7051	0.6820	0.2483	9.6352
5.7101	0.6843	0.2602	9.6490
5.7151	0.6879	0.2327	9.6263
5.7201	0.6706	0.2554	9.6323
5.7251	0.6885	0.2411	9.6275
5.7301	0.6903	0.2596	9.6179
5.7351	0.6855	0.2423	9.6209
5.7401	0.6694	0.2512	9.6209
5.7451	0.6688	0.2548	9.6376
5.7501	0.6897	0.2590	9.6382
5.7551	0.7017	0.2674	9.6341
5.7601	0.6586	0.2536	9.6478
5.7651	0.6628	0.2363	9.6622
5.7701	0.6802	0.2471	9.6412
5.7751	0.6712	0.2369	9.6801
5.7801	0.6855	0.2722	9.6263
5.7851	0.6748	0.2512	9.6364
5.7901	0.6496	0.2566	9.6370
5.7951	0.6945	0.2536	9.7722
5.8001	0.7005	0.2453	9.6502
5.8051	0.6814	0.2506	9.6747
5.8101	0.6784	0.2495	9.6263
5.8151	0.7035	0.2512	9.6077
5.8201	0.6873	0.2512	9.6346
5.8251	0.7035	0.2656	9.6376
5.8301	0.6748	0.2518	9.6430
5.8351	0.6808	0.2596	9.6251
5.8401	0.6341	0.2387	9.5515
5.8451	0.6825	0.2686	9.6538
5.8501	0.6790	0.2411	9.6275
5.8551	0.6544	0.2393	9.5916
5.8601	0.6861	0.2548	9.6460
5.8651	0.6592	0.2524	9.5982
5.8701	0.6820	0.2327	9.5886
5.8751	0.6724	0.2560	9.6185
5.8801	0.7256	0.2471	9.6323
5.8851	0.6927	0.2608	9.6424
5.8901	0.6646	0.2704	9.6358
5.8951	0.6861	0.2435	9.6227
5.9001	0.6586	0.2393	9.6293
5.9051	0.6790	0.2524	9.6305
5.9101	0.6808	0.2560	9.6855
5.9151	0.7041	0.2489	9.6634
5.9201	0.6658	0.2429	9.5958
5.9251	0.6646	0.2483	9.6364
5.9301	0.6760	0.2584	9.6233
5.9351	0.6730	0.2560	9.5964
5.9401	0.6748	0.2393	9.6855
5.9451	0.6760	0.2453	9.6699
5.9501	0.6628	0.2500	9.6257
5.9551	0.6718	0.2590	9.6089
5.9601	0.6730	0.2518	9.5952
5.9651	0.6616	0.2500	9.6305
5.9701	0.6939	0.2459	9.6388
5.9751	0.6622	0.2542	9.6335
5.9801	0.6502	0.2351	9.6388
5.9851	0.6933	0.2566	9.6424
5.9901	0.7035	0.2614	9.6364
5.9951	0.6538	0.2477	9.6323
6.0001	0.6808	0.2638	9.6341
6.0051	0.6580	0.2530	9.5988
6.0101	0.6664	0.2710	9.6023
6.0151	0.6843	0.2734	9.6508
6.0201	0.6999	0.2728	9.6454
6.0251	0.6688	0.2530	9.6646
6.0301	0.6736	0.2578	9.6532
6.0351	0.6694	0.2662	9.6155
6.0401	0.6526	0.2321	9.6358
6.0451	0.6682	0.2465	9.6358
6.0501	0.6909	0.2674	9.6400
6.0551	0.7005	0.2740	9.6670
6.0601	0.6963	0.2578	9.6035
6.0651	0.6837	0.2471	9.7914
6.0701	0.7119	0.2477	9.6771
6.0751	0.6748	0.2632	9.6095
6.0801	0.7017	0.2465	9.6275
6.0851	0.6993	0.2524	9.6299
6.0901	0.6772	0.2423	9.6412
6.0951	0.6957	0.2363	9.6329
6.1001	0.6867	0.2704	9.6346
6.1051	0.6843	0.2500	9.6364
6.1101	0.6855	0.2483	9.6382
6.1151	0.6855	0.2524	9.6287
6.1201	0.6760	0.2399	9.6245
6.1251	0.6736	0.2584	9.6071
6.1301	0.6867	0.2698	9.6490
6.1351	0.6855	0.2399	9.6436
6.1401	0.6897	0.2489	9.6311
6.1451	0.6676	0.2650	9.6155
6.1501	0.6790	0.2261	9.6813
6.1551	0.6778	0.2602	9.7854
6.1601	0.6873	0.2500	9.6071
6.1651	0.6873	0.2566	9.6478
6.1701	0.6927	0.2566	9.6364
6.1751	0.7244	0.2393	9.6299
6.1801	0.6903	0.2650	9.6472
6.1851	0.6999	0.2572	9.6538
6.1901	0.6831	0.2572	9.6179
6.1951	0.6640	0.2554	9.6370
6.2001	0.7334	0.2584	9.6490
6.2051	0.6855	0.2512	9.6753
6.2101	0.6921	0.2578	9.6299
6.2151	0.6879	0.2554	9.5994
6.2201	0.6825	0.2518	9.6526
6.2251	0.6514	0.2590	9.6221
6.2301	0.6796	0.2393	9.6424
6.2351	0.7208	0.2477	9.6394
6.2401	0.6706	0.2530	9.6436
6.2451	0.6849	0.2518	9.6179
6.2501	0.6658	0.2566	9.6000
6.2551	0.6616	0.2644	9.6329
6.2601	0.6580	0.2495	9.6287
6.2651	0.7035	0.2572	9.6723
6.2701	0.6736	0.2524	9.4977
6.2751	0.6401	0.2644	9.6083
6.2801	0.6837	0.2321	9.6430
6.2851	0.6772	0.2381	9.6059
6.2901	0.6736	0.2632	9.6323
6.2951	0.6825	0.2435	9.6424
6.3001	0.6903	0.2530	9.6203
6.3051	0.6622	0.2381	9.6562
6.3101	0.6772	0.2608	9.6442
6.3151	0.6885	0.2393	9.6598
6.3201	0.6820	0.2560	9.6077
6.3251	0.6676	0.2530	9.6311
6.3301	0.6760	0.2530	9.6185
6.3351	0.6455	0.2548	9.6346
6.3401	0.6814	0.2620	9.6616
6.3451	0.6682	0.2554	9.6029
6.3501	0.6562	0.2734	9.6520
6.3551	0.7011	0.2542	9.6418
6.3601	0.6467	0.2357	9.7818
6.3651	0.6682	0.2351	9.6520
6.3701	0.6766	0.2405	9.6305
6.3751	0.6891	0.2351	9.5808
6.3801	0.6652	0.2560	9.6490
6.3851	0.6939	0.2578	9.4965
6.3901	0.7053	0.2572	9.6317
6.3951	0.6748	0.2620	9.6652
6.4001	0.6808	0.2375	9.6490
6.4051	0.6652	0.2578	9.5850
6.4101	0.6885	0.2512	9.6263
6.4151	0.7113	0.2453	9.6556
6.4201	0.6945	0.2477	9.6341
6.4251	0.6885	0.2369	9.6472
6.4301	0.6730	0.2578	9.6293
6.4351	0.6736	0.2453	9.6299
6.4401	0.6706	0.2453	9.6233
6.4451	0.6628	0.2477	9.6454
6.4501	0.6963	0.2590	9.6275
6.4551	0.6837	0.2429	9.6341
6.4601	0.6718	0.2303	9.6077
6.4651	0.6796	0.2542	9.6257
6.4701	0.6927	0.2315	9.5988
6.4751	0.6550	0.2680	9.6215
6.4801	0.6736	0.2740	9.6209
6.4851	0.6915	0.2578	9.6239
6.4901	0.6879	0.2602	9.6185
6.4951	0.6592	0.2614	9.6580
6.5001	0.6927	0.2530	9.6281
6.5051	0.6688	0.2447	9.6448
6.5101	0.6670	0.2572	9.6221
6.5151	0.6808	0.2500	9.6209
6.5201	0.6646	0.2399	9.7011
6.5251	0.6736	0.2189	9.6789
6.5301	0.6574	0.2560	9.6664
6.5351	0.6897	0.2536	9.6233
6.5401	0.6461	0.2560	9.6155
6.5451	0.7244	0.2363	9.6335
6.5501	0.6664	0.2518	9.6251
6.5551	0.6993	0.2542	9.6329
6.5601	0.6538	0.2650	9.6400
6.5651	0.7017	0.2423	9.4995
6.5701	0.6897	0.2608	9.6592
6.5751	0.6861	0.2489	9.6592
6.5801	0.6736	0.2435	9.6335
6.5851	0.6969	0.2554	9.5808
6.5901	0.6873	0.2548	9.6502
6.5951	0.6526	0.2483	9.6526
6.6001	0.6825	0.2321	9.6520
6.6051	0.6843	0.2578	9.6406
6.6101	0.6987	0.2518	9.6472
6.6151	0.6700	0.2483	9.6059
6.6201	0.6598	0.2590	9.6215
6.6251	0.6951	0.2423	9.5856
6.6301	0.6706	0.2554	9.6442
6.6351	0.7280	0.2674	9.6520
6.6401	0.6718	0.2584	9.6311
6.6451	0.6598	0.2572	9.6400
6.6501	0.6658	0.2351	9.6095
6.6551	0.6772	0.2548	9.6245
6.6601	0.6712	0.2632	9.6305
6.6651	0.6682	0.2524	9.6604
6.6701	0.6670	0.2518	9.6382
6.6751	0.6820	0.2644	9.5605
6.6801	0.6790	0.2542	9.6418
6.6851	0.6796	0.2590	9.6478
6.6901	0.6909	0.2566	9.6341
6.6951	0.6760	0.2369	9.6227
6.7001	0.7029	0.2674	9.6490
6.7051	0.6772	0.2548	9.6532
6.7101	0.6843	0.2315	9.6119
6.7151	0.6891	0.2626	9.6341
6.7201	0.6628	0.2548	9.6101
6.7251	0.6891	0.2638	9.6179
6.7301	0.6796	0.2578	9.6424
6.7351	0.6873	0.2704	9.6263
6.7401	0.6652	0.2590	9.5964
6.7451	0.6574	0.2614	9.6358
6.7501	0.6490	0.2638	9.6131
6.7551	0.6814	0.2692	9.5772
6.7601	0.7023	0.2327	9.6299
6.7651	0.6981	0.2554	9.6466
6.7701	0.6676	0.2489	9.6029
6.7751	0.6652	0.2471	9.6329
6.7801	0.6820	0.2315	9.6604
6.7851	0.6927	0.2554	9.6364
6.7901	0.6778	0.2483	9.6137
6.7951	0.6730	0.2387	9.6406
6.8001	0.6897	0.2590	9.6299
6.8051	0.6658	0.2447	9.6358
6.8101	0.6754	0.2399	9.6364
6.8151	0.6658	0.2566	9.6406
6.8201	0.6778	0.2560	9.5994
6.8251	0.6467	0.2548	9.6209
6.8301	0.6802	0.2429	9.6460
6.8351	0.6903	0.2387	9.7950
6.8401	0.6969	0.2477	9.6532
6.8451	0.6802	0.2441	9.6604
6.8501	0.6772	0.2668	9.6197
6.8551	0.6820	0.2477	9.5970
6.8601	0.6879	0.2417	9.6341
6.8651	0.6981	0.2465	9.6520
6.8701	0.7029	0.2375	9.5940
6.8751	0.7178	0.2459	9.6394
6.8801	0.6574	0.2614	9.6388
6.8851	0.6658	0.2566	9.6472
6.8901	0.7095	0.2429	9.6526
6.8951	0.6742	0.2680	9.5826
6.9001	0.6682	0.2489	9.6071
6.9051	0.6885	0.2321	9.7118
6.9101	0.6646	0.2465	9.6131
6.9151	0.6814	0.2363	9.6257
6.9201	0.6754	0.2734	9.6544
6.9251	0.6754	0.2465	9.6017
6.9301	0.6772	0.2644	9.6502
6.9351	0.6646	0.2560	9.6472
6.9401	0.6700	0.2554	9.6460
6.9451	0.6831	0.2435	9.6568
6.9501	0.6921	0.2495	9.7878
6.9551	0.6742	0.2638	9.5898
6.9601	0.6754	0.2578	9.6514
6.9651	0.6909	0.2536	9.6077
6.9701	0.6359	0.2483	9.6406
6.9751	0.6778	0.2429	9.6341
6.9801	0.7065	0.2459	9.5946
6.9851	0.6718	0.2596	9.6514
6.9901	0.6658	0.2602	9.6400
6.9951	0.6772	0.2632	9.6089
7.0001	0.6610	0.2548	9.6670
7.0051	0.6808	0.2572	9.6299
7.0101	0.6670	0.2620	9.6107
7.0151	0.7005	0.2650	9.6287
7.0201	0.6796	0.2405	9.6137
7.0251	0.6706	0.2536	9.6203
7.0301	0.6730	0.2453	9.6580
7.0351	0.6885	0.2387	9.6556
7.0401	0.6688	0.2518	9.7812
7.0451	0.7256	0.2686	9.6658
7.0501	0.6837	0.2417	9.6376
7.0551	0.6604	0.2435	9.6777
7.0601	0.6652	0.2650	9.5581
7.0651	0.6808	0.2548	9.7998
7.0701	0.6802	0.2536	9.6478
7.0751	0.6520	0.2716	9.6185
7.0801	0.6766	0.2435	9.6352
7.0851	0.6586	0.2596	9.6317
7.0901	0.6568	0.2590	9.6670
7.0951	0.6622	0.2901	9.6083
7.1001	0.6634	0.2632	9.6311
7.1051	0.6724	0.2429	9.6346
7.1101	0.6766	0.2453	9.6412
7.1151	0.6592	0.2477	9.6765
7.1201	0.6682	0.2686	9.6035
7.1251	0.6921	0.2506	9.6119
7.1301	0.6939	0.2524	9.7890
7.1351	0.6891	0.2465	9.6275
7.1401	0.6688	0.2518	9.6269
7.1451	0.6616	0.2483	9.6311
7.1501	0.6670	0.2309	9.6490
7.1551	0.6760	0.2512	9.6364
7.1601	0.6861	0.2680	9.6131
7.1651	0.6664	0.2614	9.6287
7.1701	0.6622	0.2333	9.6167
7.1751	0.6634	0.2518	9.6436
7.1801	0.6730	0.2590	9.5910
7.1851	0.6592	0.2273	9.6520
7.1901	0.6999	0.2387	9.6143
7.1951	0.6820	0.2411	9.6484
7.2001	0.6760	0.2489	9.6508
7.2051	0.6814	0.2536	9.6149
7.2101	0.6742	0.2554	9.6035
7.2151	0.6730	0.2644	9.6658
7.2201	0.6556	0.2417	9.6197
7.2251	0.6802	0.2351	9.6113
7.2301	0.6939	0.2399	9.6388
7.2351	0.6867	0.2524	9.6424
7.2401	0.6873	0.2566	9.6317
7.2451	0.6825	0.2542	9.6251
7.2501	0.6628	0.2620	9.6047
7.2551	0.6694	0.2459	9.6490
7.2601	0.6670	0.2566	9.6275
7.2651	0.6802	0.2524	9.5419
7.2701	0.6939	0.2626	9.6251
7.2751	0.6802	0.2405	9.6622
7.2801	0.6957	0.2650	9.6041
7.2851	0.6993	0.2405	9.6113
7.2901	0.6568	0.2453	9.6490
7.2951	0.6760	0.2441	9.6346
7.3001	0.6550	0.2614	9.6227
7.3051	0.6897	0.2518	9.6532
7.3101	0.6790	0.2363	9.6341
7.3151	0.6867	0.2465	9.6705
7.3201	0.6963	0.2530	9.6275
7.3251	0.6975	0.2644	9.6335
7.3301	0.6975	0.2465	9.6891
7.3351	0.6897	0.2381	9.6263
7.3401	0.6784	0.2387	9.6652
7.3451	0.6556	0.2626	9.6000
7.3501	0.6927	0.2453	9.6299
7.3551	0.6568	0.2363	9.6275
7.3601	0.7005	0.2710	9.7848
7.3651	0.6670	0.2524	9.6299
7.3701	0.6993	0.2716	9.6227
7.3751	0.6736	0.2596	9.6101
7.3801	0.7047	0.2465	9.6574
7.3851	0.6742	0.2530	9.6508
7.3901	0.6610	0.2435	9.6167
7.3951	0.6837	0.2590	9.5958
7.4001	0.6760	0.2225	9.6430
7.4051	0.6987	0.2656	9.6083
7.4101	0.6909	0.2548	9.6556
7.4151	0.6897	0.2506	9.6526
7.4201	0.6861	0.2417	9.6329
7.4251	0.6820	0.2339	9.6113
7.4301	0.6598	0.2465	9.6329
7.4351	0.6820	0.2441	9.6071
7.4401	0.6831	0.2339	9.6305
7.4451	0.6790	0.2387	9.6442
7.4501	0.6730	0.2638	9.6329
7.4551	0.6496	0.2375	9.5886
7.4601	0.7077	0.2620	9.6460
7.4651	0.6520	0.2459	9.6376
7.4701	0.6580	0.2417	9.6125
7.4751	0.6879	0.2512	9.6520
7.4801	0.6820	0.2554	9.5880
7.4851	0.6903	0.2548	9.6430
7.4901	0.6903	0.2459	9.6670
7.4951	0.7125	0.2399	9.6484
7.5001	0.6658	0.2626	9.5856
7.5051	0.6861	0.2584	9.6299
7.5101	0.6736	0.2459	9.6275
7.5151	0.6532	0.2584	9.6418
7.5201	0.7065	0.2590	9.6239
7.5251	0.6718	0.2500	9.6436
7.5301	0.6987	0.2500	9.6215
7.5351	0.6820	0.2596	9.5994
7.5401	0.6879	0.2500	9.6299
7.5451	0.6993	0.2566	9.6442
7.5501	0.6867	0.2459	9.6311
7.5551	0.6706	0.2662	9.6335
7.5601	0.6843	0.2572	9.5587
7.5651	0.6951	0.2638	9.6358
7.5701	0.6730	0.2644	9.6346
7.5751	0.6610	0.2512	9.5862
7.5801	0.6808	0.2387	9.6245
7.5851	0.7029	0.2345	9.6502
7.5901	0.6951	0.2417	9.6472
7.5951	0.6664	0.2417	9.6562
7.6001	0.6796	0.2518	9.6281
7.6051	0.6861	0.2572	9.6442
7.6101	0.6371	0.2554	9.5916
7.6151	0.6921	0.2680	9.6658
7.6201	0.6718	0.2536	9.6101
7.6251	0.6461	0.2387	9.6388
7.6301	0.6993	0.2387	9.7998
7.6351	0.6915	0.2674	9.5874
7.6401	0.6622	0.2668	9.6717
7.6451	0.6670	0.2506	9.6484
7.6501	0.6909	0.2602	9.6263
7.6551	0.6855	0.2459	9.6293
7.6601	0.6879	0.2447	9.6550
7.6651	0.6760	0.2584	9.6514
7.6701	0.6766	0.2429	9.6173
7.6751	0.6951	0.2608	9.6299
7.6801	0.6957	0.2423	9.6400
7.6851	0.6820	0.2536	9.6394
7.6901	0.6879	0.2465	9.5778
7.6951	0.6903	0.2632	9.6532
7.7001	0.6568	0.2512	9.6227
7.7051	0.6867	0.2512	9.6604
7.7101	0.6855	0.2447	9.6400
7.7151	0.6861	0.2620	9.6460
7.7201	0.6843	0.2506	9.6335
7.7251	0.6437	0.2788	9.6544
7.7301	0.6682	0.2423	9.6065
7.7351	0.6574	0.2584	9.6394
7.7401	0.6873	0.2698	9.7016
7.7451	0.6945	0.2662	9.6352
7.7501	0.6449	0.2560	9.5934
7.7551	0.6754	0.2578	9.6634
7.7601	0.6766	0.2381	9.6023
7.7651	0.6849	0.2596	9.6664
7.7701	0.6712	0.2489	9.6526
7.7751	0.6532	0.2495	9.6155
7.7801	0.6873	0.2560	9.6550
7.7851	0.6622	0.2506	9.6221
7.7901	0.6604	0.2465	9.6466
7.7951	0.7005	0.2447	9.6101
7.8001	0.6784	0.2590	9.6131
7.8051	0.6760	0.2650	9.5982
7.8101	0.7023	0.2746	9.6364
7.8151	0.7029	0.2387	9.6388
7.8201	0.6879	0.2500	9.6741
7.8251	0.6778	0.2447	9.6370
7.8301	0.6778	0.2477	9.6191
7.8351	0.6550	0.2429	9.6209
7.8401	0.6855	0.2500	9.6604
7.8451	0.6754	0.2578	9.6376
7.8501	0.6664	0.2548	9.6400
7.8551	0.6724	0.2638	9.5575
7.8601	0.6873	0.2333	9.6161
7.8651	0.6658	0.2548	9.5946
7.8701	0.6772	0.2429	9.5826
7.8751	0.6598	0.2584	9.6203
7.8801	0.6443	0.2638	9.6299
7.8851	0.6790	0.2489	9.6329
7.8901	0.6855	0.2447	9.6418
7.8951	0.6802	0.2704	9.6855
7.9001	0.6610	0.2566	9.6538
7.9051	0.6335	0.2465	9.5934
7.9101	0.6981	0.2662	9.6652
7.9151	0.6945	0.2656	9.6215
7.9201	0.6592	0.2327	9.6969
7.9251	0.6849	0.2620	9.7824
7.9301	0.7011	0.2506	9.5946
7.9351	0.6820	0.2483	9.6155
7.9401	0.6891	0.2680	9.6442
7.9451	0.6814	0.2500	9.6394
7.9501	0.6891	0.2477	9.4995
7.9551	0.7053	0.2548	9.6681
7.9601	0.6760	0.2417	9.6346
7.9651	0.7166	0.2423	9.6388
7.9701	0.7011	0.2363	9.6161
7.9751	0.6820	0.2512	9.6460
7.9801	0.6831	0.2662	9.6550
7.9851	0.6688	0.2632	9.6155
7.9901	0.6718	0.2536	9.6568
7.9951	0.6778	0.2471	9.6586
8.0001	0.6849	0.2542	9.6239
8.0051	0.6754	0.2417	9.6879
8.0101	0.6712	0.2489	9.6233
8.0151	0.6843	0.2399	9.6502
8.0201	0.6604	0.2674	9.6370
8.0251	0.6730	0.2405	9.6173
8.0301	0.6592	0.2435	9.6137
8.0351	0.7017	0.2566	9.6532
8.0401	0.6975	0.2734	9.6305
8.0451	0.6802	0.2572	9.6197
8.0501	0.7041	0.2548	9.6598
8.0551	0.6520	0.2500	9.6269
8.0601	0.6808	0.2399	9.6532
8.0651	0.6688	0.2548	9.6263
8.0701	0.6574	0.2357	9.6412
8.0751	0.6754	0.2453	9.6741
8.0801	0.6993	0.2554	9.6131
8.0851	0.6939	0.2518	9.6532
8.0901	0.6814	0.2489	9.6299
8.0951	0.6897	0.2429	9.6113
8.1001	0.6742	0.2656	9.6717
8.1051	0.6831	0.2590	9.6299
8.1101	0.7160	0.2207	9.6388
8.1151	0.6724	0.2435	9.6382
8.1201	0.6796	0.2489	9.6568
8.1251	0.7011	0.2429	9.6317
8.1301	0.6604	0.2596	9.6430
8.1351	0.6730	0.2536	9.6059
8.1401	0.6784	0.2530	9.6215
8.1451	0.6628	0.2752	9.6161
8.1501	0.6760	0.2632	9.5784
8.1551	0.6849	0.2524	9.5024
8.1601	0.6634	0.2530	9.6203
8.1651	0.6861	0.2483	9.5874
8.1701	0.6825	0.2644	9.6526
8.1751	0.6694	0.2871	9.6388
8.1801	0.6790	0.2578	9.6173
8.1851	0.6616	0.2632	9.5952
8.1901	0.7011	0.2536	9.6634
8.1951	0.6514	0.2321	9.6622
8.2001	0.6772	0.2387	9.6095
8.2051	0.6616	0.2405	9.6107
8.2101	0.6814	0.2518	9.6430
8.2151	0.6664	0.2566	9.6370
8.2201	0.6754	0.2572	9.6233
8.2251	0.6921	0.2405	9.6646
8.2301	0.6837	0.2500	9.6358
8.2351	0.6861	0.2686	9.6203
8.2401	0.7268	0.2518	9.6299
8.2451	0.7011	0.2602	9.4965
8.2501	0.7023	0.2632	9.6394
8.2551	0.6718	0.2638	9.6628
8.2601	0.6646	0.2536	9.6305
8.2651	0.6999	0.2578	9.6484
8.2701	0.6879	0.2638	9.5946
8.2751	0.7041	0.2704	9.6341
8.2801	0.6993	0.2620	9.6101
8.2851	0.6676	0.2231	9.6376
8.2901	0.6790	0.2429	9.6717
8.2951	0.6670	0.2483	9.6879
8.3001	0.6825	0.2572	9.6550
8.3051	0.6556	0.2285	9.6670
8.3101	0.6825	0.2584	9.6370
8.3151	0.6814	0.2506	9.6185
8.3201	0.6568	0.2495	9.6532
8.3251	0.6825	0.2518	9.6628
8.3301	0.6640	0.2471	9.6574
8.3351	0.6909	0.2536	9.7896
8.3401	0.7035	0.2441	9.6233
8.3451	0.6957	0.2465	9.6191
8.3501	0.7023	0.2536	9.6143
8.3551	0.6897	0.2602	9.6604
8.3601	0.7017	0.2465	9.6640
8.3651	0.6556	0.2495	9.6490
8.3701	0.6873	0.2548	9.6131
8.3751	0.6652	0.2644	9.6191
8.3801	0.6712	0.2530	9.6430
8.3851	0.6921	0.2590	9.6544
8.3901	0.6778	0.2566	9.6221
8.3951	0.6849	0.2770	9.6514
8.4001	0.6730	0.2261	9.6335
8.4051	0.7029	0.2560	9.6035
8.4101	0.6670	0.2261	9.6801
8.4151	0.6861	0.2656	9.6167
8.4201	0.7125	0.2447	9.6167
8.4251	0.6742	0.2357	9.7872
8.4301	0.6449	0.2716	9.6059
8.4351	0.6951	0.2560	9.6424
8.4401	0.6975	0.2614	9.6335
8.4451	0.7053	0.2554	9.6532
8.4501	0.6700	0.2512	9.6406
8.4551	0.6742	0.2441	9.6490
8.4601	0.6825	0.2387	9.6053
8.4651	0.6712	0.2578	9.6622
8.4701	0.6772	0.2375	9.6209
8.4751	0.6646	0.2554	9.6430
8.4801	0.6461	0.2746	9.6203
8.4851	0.6676	0.2483	9.6305
8.4901	0.6592	0.2566	9.6167
8.4951	0.7005	0.2399	9.6245
8.5001	0.6652	0.2602	9.6095
8.5051	0.6814	0.2477	9.6341
8.5101	0.6772	0.2692	9.6424
8.5151	0.6532	0.2393	9.6287
8.5201	0.6658	0.2560	9.6233
8.5251	0.6957	0.2626	9.6460
8.5301	0.6873	0.2554	9.6299
8.5351	0.6742	0.2530	9.6077
8.5401	0.6825	0.2411	9.6496
8.5451	0.6550	0.2530	9.6400
8.5501	0.6676	0.2566	9.6035
8.5551	0.6706	0.2285	9.6430
8.5601	0.6748	0.2530	9.6436
8.5651	0.7005	0.2393	9.6191
8.5701	0.6526	0.2417	9.6341
8.5751	0.6933	0.2548	9.6861
8.5801	0.6885	0.2536	9.6149
8.5851	0.6598	0.2303	9.5784
8.5901	0.6849	0.2578	9.6293
8.5951	0.7029	0.2267	9.6233
8.6001	0.7083	0.2530	9.6317
8.6051	0.6730	0.2668	9.7788
8.6101	0.6796	0.2584	9.6388
8.6151	0.6652	0.2453	9.6388
8.6201	0.6640	0.2626	9.6358
8.6251	0.6957	0.2608	9.6107
8.6301	0.6724	0.2441	9.6341
8.6351	0.6825	0.2518	9.6155
8.6401	0.6825	0.2728	9.6329
8.6451	0.6790	0.2512	9.6023
8.6501	0.6903	0.2584	9.6251
8.6552	0.6766	0.2620	9.6215
8.6602	0.6802	0.2506	9.6472
8.6652	0.6718	0.2381	9.5898
8.6702	0.6927	0.2363	9.6012
8.6752	0.6784	0.2453	9.7214
8.6802	0.6562	0.2656	9.6077
8.6852	0.6867	0.2590	9.6335
8.6902	0.6682	0.2686	9.6412
8.6952	0.6706	0.2602	9.6532
8.7002	0.6897	0.2512	9.6490
8.7052	0.6945	0.2566	9.6149
8.7102	0.6700	0.2471	9.6095
8.7152	0.7017	0.2483	9.6526
8.7202	0.6664	0.2351	9.6299
8.7252	0.6455	0.2471	9.6299
8.7302	0.6987	0.2297	9.6550
8.7352	0.6772	0.2429	9.6412
8.7402	0.6479	0.2441	9.6394
8.7452	0.6814	0.2387	9.6771
8.7502	0.6963	0.2656	9.6185
8.7552	0.7059	0.2369	9.6490
8.7602	0.6814	0.2584	9.6335
8.7652	0.6939	0.2195	9.6640
8.7702	0.6808	0.2500	9.6532
8.7752	0.6790	0.2512	9.6388
8.7802	0.6580	0.2387	9.6508
8.7852	0.6706	0.2429	9.6335
8.7902	0.7460	0.2477	9.6801
8.7952	0.6802	0.2602	9.6341
8.8002	0.6616	0.2483	9.6562
8.8052	0.6514	0.2602	9.6299
8.8102	0.6718	0.2608	9.6149
8.8152	0.6562	0.2524	9.6466
8.8202	0.6718	0.2638	9.6107
8.8252	0.6861	0.2441	9.6550
8.8302	0.6150	0.2339	9.6520
8.8352	0.6760	0.2644	9.6215
8.8402	0.6855	0.2578	9.6496
8.8452	0.6658	0.2584	9.5898
8.8502	0.6772	0.2512	9.6305
8.8552	0.6646	0.2716	9.6269
8.8602	0.6730	0.2369	9.6245
8.8652	0.6784	0.2375	9.6568
8.8702	0.6610	0.2728	9.6269
8.8752	0.6700	0.2518	9.6227
8.8802	0.6538	0.2357	9.5832
8.8852	0.6820	0.2435	9.6358
8.8902	0.6718	0.2650	9.6382
8.8952	0.6616	0.2393	9.6622
8.9002	0.6772	0.2435	9.6526
8.9052	0.6628	0.2524	9.5736
8.9102	0.6849	0.2584	9.5922
8.9152	0.6879	0.2524	9.6711
8.9202	0.6909	0.2500	9.6604
8.9252	0.6670	0.2554	9.6514
8.9302	0.6897	0.2536	9.6466
8.9352	0.6766	0.2489	9.6693
8.9402	0.6664	0.2429	9.6400
8.9452	0.6975	0.2644	9.6628
8.9502	0.6730	0.2524	9.6424
8.9552	0.6694	0.2333	9.6502
8.9602	0.6730	0.2554	9.6532
8.9652	0.6957	0.2441	9.6012
8.9702	0.6981	0.2614	9.6556
8.9752	0.6879	0.2572	9.6406
8.9802	0.6628	0.2489	9.6538
8.9852	0.6688	0.2500	9.6305
8.9902	0.7155	0.2429	9.6646
8.9952	0.6628	0.2506	9.6095
9.0002	0.6778	0.2596	9.6233
9.0052	0.6670	0.2447	9.6053
9.0102	0.6748	0.2375	9.6376
9.0152	0.6748	0.2620	9.6257
9.0202	0.6718	0.2614	9.6161
9.0252	0.6736	0.2656	9.6263
9.0302	0.6927	0.2381	9.6017
9.0352	0.6479	0.2495	9.6179
9.0402	0.6772	0.2530	9.6382
9.0452	0.6682	0.2596	9.5742
9.0502	0.6837	0.2662	9.6287
9.0552	0.6784	0.2602	9.6442
9.0602	0.6556	0.2435	9.6346
9.0652	0.6772	0.2495	9.6520
9.0702	0.7041	0.2590	9.6508
9.0752	0.6556	0.2369	9.6352
9.0802	0.6634	0.2315	9.6400
9.0852	0.7430	0.2548	9.6382
9.0902	0.6981	0.2441	9.6293
9.0952	0.6646	0.2518	9.6364
9.1002	0.6873	0.2542	9.6239
9.1052	0.6604	0.2369	9.5001
9.1102	0.6449	0.2560	9.6490
9.1152	0.6939	0.2740	9.6089
9.1202	0.7011	0.2483	9.6251
9.1252	0.7107	0.2794	9.6173
9.1302	0.6790	0.2542	9.6436
9.1352	0.6891	0.2548	9.6484
9.1402	0.6742	0.2692	9.5988
9.1452	0.6706	0.2375	9.6173
9.1502	0.6861	0.2483	9.6580
9.1552	0.6927	0.2698	9.6233
9.1602	0.6837	0.2477	9.6035
9.1652	0.6993	0.2536	9.6855
9.1702	0.6538	0.2584	9.6562
9.1752	0.6945	0.2363	9.6538
9.1802	0.6825	0.2788	9.6556
9.1852	0.7184	0.2722	9.6287
9.1902	0.6921	0.2273	9.6981
9.1952	0.6616	0.2512	9.6341
9.2002	0.6706	0.2608	9.5940
9.2052	0.6861	0.2871	9.6454
9.2102	0.6766	0.2536	9.6293
9.2152	0.6969	0.2644	9.6065
9.2202	0.7071	0.2405	9.6400
9.2252	0.6580	0.2399	9.6376
9.2302	0.6987	0.2405	9.6424
9.2352	0.6616	0.2471	9.6209
9.2402	0.6646	0.2471	9.6167
9.2452	0.6933	0.2429	9.6430
9.2502	0.6993	0.2399	9.6502
9.2552	0.6568	0.2429	9.5874
9.2602	0.6796	0.2381	9.6628
9.2652	0.6849	0.2506	9.6227
9.2702	0.7095	0.2393	9.6335
9.2752	0.6754	0.2554	9.6233
9.2802	0.6873	0.2500	9.6203
9.2852	0.6915	0.2465	9.6077
9.2902	0.6981	0.2399	9.6538
9.2952	0.6820	0.2530	9.6502
9.3002	0.6688	0.2483	9.6364
9.3052	0.6837	0.2423	9.6478
9.3102	0.7035	0.2620	9.7734
9.3152	0.6831	0.2602	9.6071
9.3202	0.6754	0.2596	9.6035
9.3252	0.6778	0.2566	9.6233
9.3302	0.6831	0.2608	9.6747
9.3352	0.6688	0.2578	9.6394
9.3402	0.6867	0.2381	9.6580
9.3452	0.6766	0.2489	9.6616
9.3502	0.7041	0.2512	9.6269
9.3552	0.6664	0.2351	9.6251
9.3602	0.6736	0.2500	9.6251
9.3652	0.6927	0.2477	9.6699
9.3702	0.6879	0.2572	9.6185
9.3752	0.6556	0.2435	9.6119
9.3802	0.6766	0.2459	9.6125
9.3852	0.6778	0.2429	9.6807
9.3902	0.6933	0.2524	9.6538
9.3952	0.6568	0.2375	9.6215
9.4002	0.6825	0.2626	9.6400
9.4052	0.6520	0.2500	9.6119
9.4102	0.6688	0.2770	9.6083
9.4152	0.6772	0.2590	9.6137
9.4202	0.6873	0.2213	9.6490
9.4252	0.6975	0.2572	9.6245
9.4302	0.6616	0.2572	9.6143
9.4352	0.6909	0.2363	9.6406
9.4402	0.6766	0.2369	9.6424
9.4452	0.6664	0.2465	9.6382
9.4502	0.6598	0.2435	9.6664
9.4552	0.7041	0.2614	9.6047
9.4602	0.6688	0.2506	9.5772
9.4652	0.6903	0.2704	9.6370
9.4702	0.6891	0.2608	9.6257
9.4752	0.6915	0.2483	9.6496
9.4802	0.6778	0.2423	9.6472
9.4852	0.7047	0.2399	9.6185
9.4902	0.6730	0.2500	9.6119
9.4952	0.7149	0.2477	9.6693
9.5002	0.6993	0.2560	9.6616
9.5052	0.6885	0.2524	9.6436
9.5102	0.6939	0.2566	9.5712
9.5152	0.6891	0.2614	9.6209
9.5202	0.6479	0.2536	9.6424
9.5252	0.6682	0.2441	9.6646
9.5302	0.6742	0.2578	9.6580
9.5352	0.7005	0.2483	9.6400
9.5402	0.6700	0.2542	9.6299
9.5452	0.6682	0.2614	9.5994
9.5502	0.6820	0.2572	9.6454
9.5552	0.6742	0.2489	9.6520
9.5602	0.7065	0.2405	9.6622
9.5652	0.6718	0.2471	9.6167
9.5702	0.6790	0.2536	9.5976
9.5752	0.6748	0.2435	9.6550
9.5802	0.6885	0.2423	9.7459
9.5852	0.6616	0.2435	9.6197
9.5902	0.6730	0.2453	9.6293
9.5952	0.6730	0.2483	9.5976
9.6002	0.6825	0.2471	9.6113
9.6052	0.6718	0.2644	9.6317
9.6102	0.6975	0.2405	9.6526
9.6152	0.6556	0.2471	9.6311
9.6202	0.7149	0.2758	9.6508
9.6252	0.6969	0.2578	9.6167
9.6302	0.6790	0.2596	9.6346
9.6352	0.6951	0.2746	9.6305
9.6402	0.6796	0.2423	9.6239
9.6452	0.6730	0.2429	9.6574
9.6502	0.6963	0.2674	9.6317
9.6552	0.6939	0.2572	9.6376
9.6602	0.7083	0.2393	9.6664
9.6652	0.6676	0.2489	9.6592
9.6702	0.7071	0.2351	9.6299
9.6752	0.6622	0.2477	9.6263
9.6802	0.6688	0.2560	9.5850
9.6852	0.6473	0.2566	9.6275
9.6902	0.6437	0.2716	9.6693
9.6952	0.6712	0.2554	9.6406
9.7002	0.6622	0.2746	9.6472
9.7052	0.6610	0.2453	9.6604
9.7102	0.6981	0.2321	9.6281
9.7152	0.6784	0.2542	9.6448
9.7202	0.6981	0.2584	9.6012
9.7252	0.6443	0.2423	9.6185
9.7302	0.6891	0.2429	9.5988
9.7352	0.6694	0.2602	9.5976
9.7402	0.6790	0.2752	9.6514
9.7452	0.6748	0.2572	9.5940
9.7502	0.6796	0.2465	9.5952
9.7552	0.6837	0.2710	9.6083
9.7602	0.6933	0.2423	9.6245
9.7652	0.6849	0.2447	9.6335
9.7702	0.6855	0.2357	9.6837
9.7752	0.7023	0.2614	9.6610
9.7802	0.7101	0.2345	9.6526
9.7852	0.6754	0.2650	9.6448
9.7902	0.6538	0.2327	9.6083
9.7952	0.6909	0.2578	9.6478
9.8002	0.6933	0.2506	9.6496
9.8052	0.6604	0.2351	9.6083
9.8102	0.6778	0.2596	9.6580
9.8152	0.6634	0.2578	9.6335
9.8202	0.6718	0.2477	9.6520
9.8252	0.6867	0.2417	9.6520
9.8302	0.6945	0.2483	9.6245
9.8352	0.6730	0.2566	9.6239
9.8402	0.6754	0.2578	9.6364
9.8452	0.6574	0.2351	9.6364
9.8502	0.6796	0.2680	9.6346
9.8552	0.6903	0.2393	9.6729
9.8602	0.6903	0.2363	9.6071
9.8652	0.6736	0.2393	9.6538
9.8702	0.7011	0.2758	9.6269
9.8752	0.6951	0.2620	9.6101
9.8802	0.6855	0.2524	9.6562
9.8852	0.6556	0.2381	9.6000
9.8902	0.6951	0.2423	9.6490
9.8952	0.6754	0.2530	9.6125
9.9002	0.6658	0.2638	9.6257
9.9052	0.6640	0.2495	9.6490
9.9102	0.6706	0.2357	9.6167
9.9152	0.6843	0.2686	9.6412
9.9202	0.6909	0.2566	9.6544
9.9252	0.6849	0.2471	9.6059
9.9302	0.6814	0.2560	9.6472
9.9352	0.6903	0.2614	9.6251
9.9402	0.6796	0.2459	9.6197
9.9452	0.6909	0.2674	9.6424
9.9502	0.6903	0.2483	9.6119
9.9552	0.6616	0.2590	9.6173
9.9602	0.6634	0.2477	9.6215
9.9652	0.6814	0.2518	9.6179
9.9702	0.6981	0.2459	9.6556
9.9752	0.6849	0.2477	9.6472
9.9802	0.6825	0.2345	9.6388
9.9852	0.6975	0.2399	9.6352
9.9902	0.6730	0.2566	9.6364
9.9952	0.7089	0.2375	9.6861
10.0002	0.6562	0.2441	9.5766
10.0052	0.6688	0.2393	9.6101
10.0102	0.7262	0.2489	9.6598
10.0152	0.6814	0.2297	9.5904
10.0202	0.6700	0.2261	9.6466
10.0252	0.6736	0.2524	9.6699
10.0302	0.6915	0.2477	9.6203
10.0352	0.7095	0.2363	9.6921
10.0402	0.6724	0.2471	9.6305
10.0452	0.6825	0.2495	9.6454
10.0502	0.6855	0.2584	9.6418
10.0552	0.6592	0.2530	9.6299
10.0602	0.6927	0.2423	9.6544
10.0652	0.6640	0.2429	9.6460
10.0702	0.7107	0.2632	9.6305
10.0752	0.6329	0.2632	9.6012
10.0802	0.6766	0.2608	9.7782
10.0852	0.6706	0.2578	9.6239
10.0902	0.6921	0.2483	9.5874
10.0952	0.6694	0.2291	9.6424
10.1002	0.6879	0.2656	9.5671
10.1052	0.6670	0.2656	9.4947
10.1102	0.7137	0.2459	9.6412
10.1152	0.6766	0.2435	9.6101
10.1202	0.6718	0.2692	9.6173
10.1252	0.6490	0.2674	9.6544
10.1302	0.6580	0.2399	9.6227
10.1352	0.6610	0.2530	9.6149
10.1402	0.6580	0.2518	9.6807
10.1452	0.6963	0.2495	9.6466
10.1502	0.6736	0.2339	9.6472
10.1552	0.6778	0.2435	9.6466
10.1602	0.6873	0.2518	9.6323
10.1652	0.6712	0.2459	9.6693
10.1702	0.6748	0.2447	9.6388
10.1752	0.6772	0.2351	9.6155
10.1802	0.6610	0.2542	9.6281
10.1852	0.6712	0.2584	9.5946
10.1902	0.6927	0.2506	9.6173
10.1952	0.6814	0.2554	9.6341
10.2002	0.6748	0.2674	9.6281
10.2052	0.6694	0.2309	9.6556
10.2102	0.7113	0.2321	9.6293
10.2152	0.6867	0.2710	9.6251
10.2202	0.6814	0.2698	9.6161
10.2252	0.6909	0.2477	9.6382
10.2302	0.6951	0.2506	9.6257
10.2352	0.6724	0.2590	9.6646
10.2402	0.7160	0.2596	9.6586
10.2452	0.6742	0.2512	9.6035
10.2502	0.6843	0.2662	9.6197
10.2552	0.6532	0.2638	9.6167
10.2602	0.6766	0.2375	9.6305
10.2652	0.6335	0.2489	9.6119
10.2702	0.6724	0.2291	9.6759
10.2752	0.7035	0.2668	9.6346
10.2802	0.7107	0.2638	9.6185
10.2852	0.7041	0.2489	9.6358
10.2902	0.6431	0.2560	9.6035
10.2952	0.6520	0.2692	9.6430
10.3002	0.6993	0.2656	9.5916
10.3052	0.6628	0.2518	9.6233
10.3102	0.6820	0.2584	9.6514
10.3152	0.6604	0.2548	9.5940
10.3202	0.6790	0.2620	9.6065
10.3252	0.6843	0.2500	9.6580
10.3302	0.7023	0.2495	9.6029
10.3352	0.6736	0.2572	9.6813
10.3402	0.6903	0.2542	9.6508
10.3452	0.6622	0.2417	9.6436
10.3502	0.6814	0.2518	9.6209
10.3552	0.7035	0.2512	9.6717
10.3602	0.6760	0.2530	9.6131
10.3652	0.6736	0.2518	9.6143
10.3702	0.6676	0.2740	9.6484
10.3752	0.6837	0.2429	9.6179
10.3802	0.7005	0.2369	9.6472
10.3852	0.7071	0.2620	9.6592
10.3902	0.7011	0.2399	9.6209
10.3952	0.6646	0.2572	9.6287
10.4002	0.6556	0.2447	9.6245
10.4052	0.6969	0.2399	9.6311
10.4102	0.6999	0.2752	9.5970
10.4152	0.6861	0.2572	9.6472
10.4202	0.6263	0.2620	9.6167
10.4252	0.6945	0.2465	9.6424
10.4302	0.6664	0.2518	9.6311
10.4352	0.6879	0.2393	9.6478
10.4402	0.6796	0.2489	9.6544
10.4452	0.6628	0.2542	9.6239
10.4502	0.6790	0.2477	9.6448
10.4552	0.6939	0.2489	9.6131
10.4602	0.6909	0.2512	9.6472
10.4652	0.6843	0.2500	9.6197
10.4702	0.6903	0.2614	9.6251
10.4752	0.6808	0.2596	9.6293
10.4802	0.6514	0.2542	9.6376
10.4852	0.6861	0.2572	9.6735
10.4902	0.6742	0.2530	9.6388
10.4952	0.6718	0.2614	9.6161
10.5002	0.6879	0.2512	9.6281
10.5052	0.6664	0.2441	9.6538
10.5102	0.6808	0.2584	9.6532
10.5152	0.6927	0.2518	9.6335
10.5202	0.7011	0.2405	9.6191
10.5252	0.6915	0.2578	9.6436
10.5302	0.6712	0.2548	9.6514
10.5352	0.6999	0.2483	9.5994
10.5402	0.6724	0.2465	9.6466
10.5452	0.6849	0.2483	9.6556
10.5502	0.6855	0.2483	9.6119
10.5552	0.6831	0.2608	9.6185
10.5602	0.7011	0.2423	9.6598
10.5652	0.6778	0.2524	9.6317
10.5702	0.6754	0.2381	9.6478
10.5752	0.6975	0.2483	9.6101
10.5802	0.6820	0.2459	9.6394
10.5852	0.6544	0.2572	9.6275
10.5902	0.6538	0.2435	9.6137
10.5952	0.6873	0.2351	9.6263
10.6002	0.6413	0.2345	9.6478
10.6052	0.6999	0.2536	9.6113
10.6102	0.6945	0.2548	9.6753
10.6152	0.6873	0.2560	9.5934
10.6202	0.6664	0.2399	9.6406
10.6252	0.6670	0.2740	9.6502
10.6302	0.6808	0.2423	9.6053
10.6352	0.6909	0.2512	9.6341
10.6402	0.6814	0.2465	9.6412
10.6452	0.6951	0.2632	9.6556
10.6502	0.6592	0.2620	9.5820
10.6552	0.6610	0.2644	9.6000
10.6602	0.6622	0.2656	9.6173
10.6652	0.6849	0.2333	9.6478
10.6702	0.6568	0.2441	9.7962
10.6752	0.7041	0.2465	9.6460
10.6802	0.6760	0.2572	9.6119
10.6852	0.6802	0.2614	9.6400
10.6902	0.7077	0.2297	9.6101
10.6952	0.6712	0.2339	9.7657
10.7002	0.6772	0.2536	9.6592
10.7052	0.6724	0.2638	9.6341
10.7102	0.6903	0.2477	9.6400
10.7152	0.6736	0.2500	9.6173
10.7202	0.6915	0.2219	9.6035
10.7252	0.7029	0.2477	9.6520
10.7302	0.6951	0.2530	9.6101
10.7352	0.6712	0.2650	9.6376
10.7402	0.6796	0.2632	9.6125
10.7452	0.6820	0.2614	9.6293
10.7502	0.6664	0.2572	9.6550
10.7552	0.6945	0.2572	9.6095
10.7602	0.6849	0.2542	9.6358
10.7652	0.6796	0.2590	9.6335
10.7702	0.6849	0.2638	9.6514
10.7752	0.6760	0.2596	9.6418
10.7802	0.6796	0.2399	9.6550
10.7852	0.6814	0.2417	9.4989
10.7902	0.6592	0.2650	9.6125
10.7952	0.6760	0.2638	9.6352
10.8002	0.6646	0.2608	9.6191
10.8052	0.6903	0.2477	9.6580
10.8102	0.7166	0.2500	9.6466
10.8152	0.6957	0.2477	9.6107
10.8202	0.6897	0.2423	9.6424
10.8252	0.6861	0.2435	9.6556
10.8302	0.6778	0.2554	9.6299
10.8352	0.6814	0.2489	9.6358
10.8402	0.7005	0.2500	9.6849
10.8452	0.6825	0.2459	9.6418
10.8502	0.6616	0.2315	9.6382
10.8552	0.6766	0.2405	9.6358
10.8602	0.6796	0.2506	9.6203
10.8652	0.6742	0.2495	9.6640
10.8702	0.6778	0.2626	9.6508
10.8752	0.6724	0.2554	9.6251
10.8802	0.6939	0.2584	9.6131
10.8852	0.6790	0.2674	9.6765
10.8902	0.6640	0.2495	9.6257
10.8952	0.6401	0.2483	9.6023
10.9002	0.6622	0.2680	9.6251
10.9052	0.6861	0.2500	9.6676
10.9102	0.6909	0.2686	9.6263
10.9152	0.6903	0.2644	9.6382
10.9202	0.7071	0.2506	9.6436
10.9252	0.6724	0.2530	9.6442
10.9302	0.6718	0.2441	9.6490
10.9352	0.6610	0.2518	9.6149
10.9402	0.6784	0.2626	9.6610
10.9452	0.6437	0.2512	9.6065
10.9502	0.6754	0.2441	9.6095
10.9552	0.6592	0.2614	9.6442
10.9602	0.6730	0.2375	9.6209
10.9652	0.6808	0.2530	9.6508
10.9702	0.6580	0.2447	9.5946
10.9752	0.6796	0.2536	9.6173
10.9802	0.6831	0.2518	9.6640
10.9852	0.7160	0.2369	9.6442
10.9902	0.6796	0.2512	9.7663
10.9952	0.6754	0.2674	9.6215
11.0002	0.6664	0.2620	9.6215
11.0052	0.6945	0.2321	9.6161
11.0102	0.6580	0.2602	9.6191
11.0152	0.6586	0.2644	9.6107
11.0202	0.6754	0.2441	9.6484
11.0252	0.6748	0.2656	9.5958
11.0302	0.6622	0.2489	9.6329
11.0352	0.6933	0.2536	9.6891
11.0402	0.6724	0.2381	9.6562
11.0452	0.7137	0.2524	9.6592
11.0502	0.6610	0.2566	9.6550
11.0552	0.6825	0.2644	9.6257
11.0602	0.6730	0.2542	9.6394
11.0652	0.6951	0.2506	9.5970
11.0702	0.6963	0.2489	9.6388
11.0752	0.6634	0.2530	9.6323
11.0802	0.6592	0.2512	9.7818
11.0852	0.7208	0.2716	9.6454
11.0902	0.6712	0.2447	9.6466
11.0952	0.6670	0.2381	9.6412
11.1002	0.6909	0.2674	9.6197
11.1052	0.6664	0.2387	9.6287
11.1102	0.6873	0.2321	9.6412
11.1152	0.6802	0.2423	9.6628
11.1202	0.6945	0.2602	9.6191
11.1252	0.6760	0.2393	9.5892
11.1302	0.6754	0.2548	9.6622
11.1352	0.6921	0.2572	9.6305
11.1402	0.6760	0.2536	9.6335
11.1452	0.6778	0.2656	9.6747
11.1502	0.6688	0.2626	9.6173
11.1552	0.6694	0.2536	9.6418
11.1602	0.6724	0.2554	9.6173
11.1652	0.6485	0.2524	9.6167
11.1702	0.6724	0.2500	9.4989
11.1752	0.6784	0.2495	9.6251
11.1802	0.6873	0.2495	9.5892
11.1852	0.6784	0.2626	9.6251
11.1902	0.6694	0.2698	9.6125
11.1952	0.6987	0.2506	9.7806
11.2002	0.6802	0.2393	9.6400
11.2052	0.6682	0.2483	9.6406
11.2102	0.6748	0.2536	9.6125
11.2152	0.7376	0.2423	9.6693
11.2202	0.6766	0.2536	9.5904
11.2252	0.6586	0.2357	9.6257
11.2302	0.6604	0.2542	9.6514
11.2352	0.6843	0.2506	9.6083
11.2402	0.6520	0.2740	9.6191
11.2452	0.6951	0.2518	9.6424
11.2502	0.6784	0.2471	9.6191
11.2552	0.6772	0.2644	9.6556
11.2602	0.6951	0.2375	9.6484
11.2652	0.7442	0.2303	9.6323
11.2702	0.6808	0.2710	9.6616
11.2752	0.6945	0.2566	9.6394
11.2802	0.6532	0.2303	9.5916
11.2852	0.6843	0.2602	9.7860
11.2902	0.6682	0.2524	9.6137
11.2952	0.6730	0.2399	9.6006
11.3002	0.6855	0.2554	9.6448
11.3052	0.7017	0.2453	9.6544
11.3102	0.6790	0.2560	9.6263
11.3152	0.6694	0.2477	9.6807
11.3202	0.6843	0.2536	9.6849
11.3252	0.6580	0.2536	9.6287
11.3302	0.6485	0.2740	9.6424
11.3352	0.6712	0.2441	9.6358
11.3402	0.6568	0.2459	9.6705
11.3452	0.6736	0.2650	9.6502
11.3502	0.6963	0.2506	9.6394
11.3552	0.6712	0.2471	9.6472
11.3602	0.6825	0.2686	9.6341
11.3652	0.6831	0.2554	9.6370
11.3702	0.6951	0.2495	9.7005
11.3752	0.6778	0.2506	9.6574
11.3802	0.6909	0.2542	9.6376
11.3852	0.6837	0.2572	9.6107
11.3902	0.6652	0.2668	9.6101
11.3952	0.6849	0.2518	9.6424
11.4002	0.6736	0.2500	9.7824
11.4052	0.6784	0.2674	9.6592
11.4102	0.6808	0.2566	9.6490
11.4152	0.6790	0.2417	9.6382
11.4202	0.6748	0.2495	9.6263
11.4252	0.6814	0.2662	9.5856
11.4302	0.6622	0.2453	9.6125
11.4352	0.6760	0.2518	9.5874
11.4402	0.6742	0.2656	9.6448
11.4452	0.6574	0.2351	9.6616
11.4502	0.6963	0.2500	9.5850
11.4552	0.7005	0.2405	9.6616
11.4602	0.6604	0.2596	9.6454
11.4652	0.6598	0.2560	9.6125
11.4702	0.6897	0.2411	9.6287
11.4752	0.6837	0.2369	9.6526
11.4802	0.6443	0.2554	9.6161
11.4852	0.6592	0.2524	9.6215
11.4902	0.6903	0.2614	9.6508
11.4952	0.6885	0.2405	9.6287
11.5002	0.6873	0.2536	9.6502
11.5052	0.6586	0.2728	9.6035
11.5102	0.7011	0.2512	9.6753
11.5152	0.6742	0.2459	9.6526
11.5202	0.6670	0.2578	9.5982
11.5252	0.6676	0.2506	9.6275
11.5302	0.6700	0.2590	9.6472
11.5352	0.6592	0.2668	9.6173
11.5402	0.7023	0.2632	9.6341
11.5452	0.6837	0.2554	9.6269
11.5502	0.6993	0.2632	9.6352
11.5552	0.6658	0.2512	9.6119
11.5602	0.6748	0.2560	9.6364
11.5652	0.6855	0.2459	9.5880
11.5702	0.6574	0.2590	9.6263
11.5752	0.6825	0.2512	9.6664
11.5802	0.6766	0.2399	9.6269
11.5852	0.6933	0.2489	9.6909
11.5902	0.6903	0.2453	9.6490
11.5952	0.6849	0.2495	9.6448
11.6002	0.6849	0.2584	9.6251
11.6052	0.6652	0.2512	9.7692
11.6102	0.6802	0.2351	9.6568
11.6152	0.6790	0.2548	9.6490
11.6202	0.7119	0.2692	9.6376
11.6252	0.6724	0.2560	9.6568
11.6302	0.6879	0.2686	9.6358
11.6352	0.6676	0.2423	9.6436
11.6402	0.6646	0.2393	9.6077
11.6452	0.6963	0.2441	9.6538
11.6502	0.6479	0.2495	9.5886
11.6552	0.6891	0.2483	9.6502
11.6602	0.6616	0.2512	9.5862
11.6652	0.6730	0.2429	9.6628
11.6702	0.6778	0.2453	9.8004
11.6752	0.6748	0.2512	9.6574
11.6802	0.6891	0.2489	9.5916
11.6852	0.6754	0.2644	9.6568
11.6902	0.7125	0.2602	9.6119
11.6952	0.6879	0.2608	9.6233
11.7002	0.6598	0.2447	9.6454
11.7052	0.6808	0.2536	9.6454
11.7102	0.6825	0.2626	9.6329
11.7152	0.7005	0.2321	9.6771
11.7202	0.6945	0.2560	9.6460
11.7252	0.6670	0.2417	9.5784
11.7302	0.6730	0.2297	9.6269
11.7352	0.6820	0.2524	9.6335
11.7402	0.6730	0.2243	9.6329
11.7452	0.6748	0.2405	9.6113
11.7502	0.6999	0.2626	9.6257
11.7552	0.6730	0.2608	9.6017
11.7602	0.6580	0.2728	9.6400
11.7652	0.6825	0.2417	9.6083
11.7702	0.6670	0.2524	9.6167
11.7752	0.6957	0.2518	9.6478
11.7802	0.6586	0.2500	9.6203
11.7852	0.6814	0.2471	9.6598
11.7902	0.6682	0.2530	9.6209
11.7952	0.6700	0.2620	9.6023
11.8002	0.6718	0.2560	9.6616
11.8052	0.6945	0.2656	9.5724
11.8102	0.6831	0.2518	9.7686
11.8152	0.6682	0.2524	9.6514
11.8202	0.6712	0.2524	9.6382
11.8252	0.6802	0.2477	9.6532
11.8302	0.6849	0.2542	9.6610
11.8352	0.6855	0.2506	9.6370
11.8402	0.6855	0.2399	9.6514
11.8452	0.6861	0.2512	9.6442
11.8502	0.6652	0.2369	9.6269
11.8552	0.6760	0.2369	9.5916
11.8602	0.6712	0.2423	9.6723
11.8652	0.6796	0.2518	9.6412
11.8702	0.6502	0.2435	9.5868
11.8752	0.6849	0.2465	9.4995
11.8802	0.6736	0.2572	9.5814
11.8852	0.6646	0.2506	9.6125
11.8902	0.6640	0.2704	9.6424
11.8952	0.7119	0.2590	9.6436
11.9002	0.6401	0.2614	9.7902
11.9052	0.6700	0.2740	9.6245
11.9102	0.6538	0.2554	9.5802
11.9152	0.6461	0.2590	9.6496
11.9202	0.6939	0.2548	9.6472
11.9252	0.6921	0.2710	9.6113
11.9302	0.7005	0.2626	9.6394
11.9352	0.6730	0.2327	9.6550
11.9402	0.6837	0.2387	9.6741
11.9452	0.6808	0.2644	9.6317
11.9502	0.6664	0.2483	9.6586
11.9552	0.7137	0.2578	9.6394
11.9602	0.6784	0.2512	9.6400
11.9652	0.7095	0.2411	9.6406
11.9702	0.6718	0.2495	9.6281
11.9752	0.6981	0.2596	9.6083
11.9802	0.6413	0.2632	9.6610
11.9852	0.6479	0.2500	9.6125
11.9902	0.6670	0.2536	9.6406
11.9952	0.6634	0.2572	9.6317
12.0002	0.6730	0.2722	9.6335
12.0052	0.6790	0.2596	9.6341
12.0102	0.6957	0.2381	9.6299
12.0152	0.6694	0.2542	9.6239
12.0202	0.6706	0.2423	9.5946
12.0252	0.6921	0.2506	9.6400
12.0302	0.6766	0.2387	9.6394
12.0352	0.6544	0.2554	9.6125
12.0402	0.6855	0.2500	9.6221
12.0452	0.6808	0.2554	9.5862
12.0502	0.6885	0.2339	9.6017
12.0552	0.6508	0.2357	9.6430
12.0602	0.7041	0.2213	9.6430
12.0652	0.6945	0.2584	9.6478
12.0702	0.6903	0.2602	9.6155
12.0752	0.6957	0.2698	9.6376
12.0802	0.6772	0.2387	9.6424
12.0852	0.6975	0.2542	9.6472
12.0902	0.6772	0.2357	9.6550
12.0952	0.6778	0.2614	9.6275
12.1002	0.7047	0.2369	9.6281
12.1052	0.6861	0.2602	9.6239
12.1102	0.6682	0.2626	9.6604
12.1152	0.6437	0.2477	9.6502
12.1202	0.6712	0.2560	9.6047
12.1252	0.6496	0.2746	9.6406
12.1302	0.6849	0.2506	9.6221
12.1352	0.6670	0.2716	9.6245
12.1402	0.6814	0.2662	9.6358
12.1452	0.6730	0.2500	9.6323
12.1502	0.6831	0.2315	9.6197
12.1552	0.6664	0.2512	9.6592
12.1602	0.6808	0.2686	9.6388
12.1652	0.6634	0.2429	9.6412
12.1702	0.6544	0.2447	9.6341
12.1752	0.6724	0.2584	9.5712
12.1802	0.6891	0.2411	9.6239
12.1852	0.6993	0.2716	9.6388
12.1902	0.6718	0.2381	9.6257
12.1952	0.6646	0.2542	9.6382
12.2002	0.6586	0.2435	9.6364
12.2052	0.6664	0.2578	9.5868
12.2102	0.6975	0.2554	9.6239
12.2152	0.7029	0.2632	9.6418
12.2202	0.6808	0.2399	9.6053
12.2252	0.6867	0.2267	9.6454
12.2302	0.6993	0.2674	9.6616
12.2352	0.6897	0.2530	9.6125
12.2402	0.6640	0.2315	9.6891
12.2452	0.6849	0.2626	9.6568
12.2502	0.6796	0.2566	9.6329
12.2552	0.7059	0.2500	9.6646
12.2602	0.6802	0.2704	9.6556
12.2652	0.7065	0.2285	9.6508
12.2702	0.6580	0.2572	9.6364
12.2752	0.6628	0.2560	9.6335
12.2802	0.6604	0.2345	9.6508
12.2852	0.6796	0.2608	9.4995
12.2902	0.6861	0.2620	9.6699
12.2952	0.6808	0.2548	9.6586
12.3002	0.7029	0.2291	9.6478
12.3052	0.6814	0.2740	9.5874
12.3102	0.6598	0.2453	9.6209
12.3152	0.6604	0.2441	9.6622
12.3202	0.6855	0.2626	9.6670
12.3252	0.6939	0.2560	9.6203
12.3302	0.6365	0.2656	9.6352
12.3352	0.6897	0.2656	9.6341
12.3402	0.6694	0.2812	9.6083
12.3452	0.6837	0.2441	9.6879
12.3502	0.6736	0.2548	9.6305
12.3552	0.6736	0.2303	9.6448
12.3602	0.6646	0.2405	9.6652
12.3652	0.6843	0.2465	9.6053
12.3702	0.7292	0.2375	9.6837
12.3752	0.6784	0.2596	9.6251
12.3802	0.6879	0.2459	9.6077
12.3852	0.6939	0.2471	9.6442
12.3902	0.6766	0.2716	9.6550
12.3952	0.6700	0.2495	9.6035
12.4002	0.6718	0.2644	9.7794
12.4052	0.6718	0.2381	9.6616
12.4102	0.6778	0.2399	9.6604
12.4152	0.6903	0.2554	9.6352
12.4202	0.7047	0.2477	9.6089
12.4252	0.6622	0.2518	9.6346
12.4302	0.6730	0.2183	9.6454
12.4352	0.6676	0.2285	9.6640
12.4402	0.6837	0.2560	9.6496
12.4452	0.6933	0.2459	9.6412
12.4502	0.6843	0.2393	9.6394
12.4552	0.6766	0.2542	9.6329
12.4602	0.6849	0.2447	9.6550
12.4652	0.6802	0.2542	9.6215
12.4702	0.7160	0.2566	9.6263
12.4752	0.6766	0.2524	9.6323
12.4802	0.7011	0.2489	9.6484
12.4852	0.6987	0.2441	9.6717
12.4902	0.6879	0.2554	9.4989
12.4952	0.6748	0.2315	9.6251
12.5002	0.6814	0.2327	9.6580
12.5052	0.6993	0.2423	9.6640
12.5102	0.6963	0.2459	9.6801
12.5152	0.6837	0.2297	9.6197
12.5202	0.6694	0.2584	9.6083
12.5252	0.6808	0.2668	9.6526
12.5302	0.6748	0.2602	9.6424
12.5352	0.6652	0.2698	9.6161
12.5402	0.6999	0.2590	9.6418
12.5452	0.6622	0.2423	9.6173
12.5502	0.6843	0.2530	9.6197
12.5552	0.6790	0.2411	9.6394
12.5602	0.7023	0.2453	9.5754
12.5652	0.6837	0.2500	9.6215
12.5702	0.6778	0.2345	9.6478
12.5752	0.6730	0.2674	9.6335
12.5802	0.6586	0.2674	9.6227
12.5852	0.7071	0.2441	9.6388
12.5902	0.7023	0.2734	9.6388
12.5952	0.6736	0.2500	9.6364
12.6002	0.6754	0.2417	9.6137
12.6052	0.6999	0.2584	9.6329
12.6102	0.6927	0.2261	9.7040
12.6152	0.6855	0.2608	9.6520
12.6202	0.6885	0.2465	9.6358
12.6252	0.6670	0.2369	9.6436
12.6302	0.6473	0.2530	9.5916
12.6352	0.6670	0.2506	9.6460
12.6402	0.6694	0.2435	9.6658
12.6452	0.6951	0.2345	9.6209
12.6502	0.6646	0.2387	9.6035
12.6552	0.6945	0.2375	9.6053
12.6602	0.6814	0.2698	9.6263
12.6652	0.6676	0.2620	9.6927
12.6702	0.6580	0.2506	9.6179
12.6752	0.6909	0.2512	9.6580
12.6802	0.6652	0.2638	9.6592
12.6852	0.6688	0.2429	9.6209
12.6902	0.6933	0.2536	9.6173
12.6952	0.6748	0.2596	9.6406
12.7002	0.6849	0.2626	9.6275
12.7052	0.6586	0.2584	9.6424
12.7102	0.6820	0.2500	9.6323
12.7152	0.6377	0.2489	9.6502
12.7202	0.6820	0.2417	9.6113
12.7252	0.6766	0.2512	9.6113
12.7302	0.6724	0.2710	9.6747
12.7352	0.6951	0.2626	9.6424
12.7402	0.6616	0.2363	9.6149
12.7452	0.6634	0.2518	9.6711
12.7502	0.6772	0.2632	9.6400
12.7552	0.6760	0.2435	9.5898
12.7602	0.6993	0.2590	9.7782
12.7652	0.7035	0.2411	9.6484
12.7702	0.6664	0.2441	9.6424
12.7752	0.6909	0.2512	9.6370
12.7802	0.6688	0.2363	9.6436
12.7852	0.6784	0.2512	9.6394
12.7902	0.6909	0.2542	9.6496
12.7952	0.6820	0.2644	9.6107
12.8002	0.6849	0.2548	9.6125
12.8052	0.7005	0.2435	9.6143
12.8102	0.6688	0.2512	9.6299
12.8152	0.6957	0.2489	9.6478
12.8202	0.6885	0.2249	9.6227
12.8252	0.6867	0.2495	9.6424
12.8302	0.6778	0.2704	9.5922
12.8352	0.6837	0.2524	9.6460
12.8402	0.6867	0.2548	9.6556
12.8452	0.6766	0.2518	9.6448
12.8502	0.7065	0.2471	9.6203
12.8552	0.6706	0.2530	9.6364
12.8602	0.6861	0.2518	9.6939
12.8652	0.6700	0.2405	9.6323
12.8702	0.6897	0.2405	9.6083
12.8752	0.6712	0.2465	9.6143
12.8802	0.6377	0.2548	9.5880
12.8852	0.7029	0.2656	9.6502
12.8902	0.6634	0.2602	9.6574
12.8952	0.6754	0.2512	9.6293
12.9002	0.6520	0.2477	9.6562
12.9052	0.6622	0.2506	9.6335
12.9102	0.6802	0.2662	9.6095
12.9152	0.6628	0.2584	9.6400
12.9202	0.6891	0.2471	9.6436
12.9252	0.6796	0.2560	9.6346
12.9302	0.6921	0.2524	9.6245
12.9352	0.6778	0.2680	9.5790
12.9402	0.6622	0.2590	9.6119
12.9452	0.7113	0.2584	9.6747
12.9502	0.6784	0.2548	9.6424
12.9552	0.6742	0.2548	9.6269
12.9602	0.6808	0.2333	9.6358
12.9652	0.6748	0.2548	9.6394
12.9702	0.6574	0.2716	9.6508
12.9752	0.6820	0.2608	9.6113
12.9802	0.6784	0.2590	9.6484
12.9852	0.6837	0.2303	9.6430
12.9902	0.7017	0.2662	9.6352
12.9952	0.6879	0.2477	9.5988
13.0002	0.6814	0.2429	9.6041
13.0052	0.6831	0.2303	9.6227
13.0102	0.6485	0.2536	9.5868
13.0152	0.6634	0.2500	9.6400
13.0202	0.7178	0.2536	9.6113
13.0253	0.6646	0.2632	9.6101
13.0303	0.6784	0.2566	9.6711
13.0353	0.6837	0.2841	9.5856
13.0403	0.6927	0.2620	9.6317
13.0453	0.7011	0.2584	9.6394
13.0503	0.6796	0.2429	9.6508
13.0553	0.6861	0.2578	9.6604
13.0603	0.6778	0.2512	9.6358
13.0653	0.6879	0.2548	9.6257
13.0703	0.6867	0.2644	9.6179
13.0753	0.6909	0.2405	9.5904
13.0803	0.6766	0.2423	9.6191
13.0853	0.7035	0.2530	9.6095
13.0903	0.6897	0.2572	9.6406
13.0953	0.6927	0.2536	9.6143
13.1003	0.7418	0.2524	9.6957
13.1053	0.6778	0.2536	9.6041
13.1103	0.7005	0.2417	9.6592
13.1153	0.6820	0.2770	9.6053
13.1203	0.6622	0.2560	9.6556
13.1253	0.6514	0.2453	9.6209
13.1303	0.6891	0.2411	9.6652
13.1353	0.6975	0.2524	9.6741
13.1403	0.6742	0.2698	9.6203
13.1453	0.6760	0.2483	9.6125
13.1503	0.6622	0.2650	9.5928
13.1553	0.6766	0.2608	9.6089
13.1603	0.6873	0.2602	9.6472
13.1653	0.7047	0.2638	9.6610
13.1703	0.6742	0.2542	9.6305
13.1753	0.6592	0.2572	9.6370
13.1803	0.6688	0.2644	9.6562
13.1853	0.6688	0.2303	9.6269
13.1903	0.6903	0.2411	9.6568
13.1953	0.6903	0.2435	9.5946
13.2003	0.6879	0.2477	9.6215
13.2053	0.6921	0.2680	9.6095
13.2103	0.6939	0.2662	9.6293
13.2153	0.6897	0.2524	9.6227
13.2203	0.6748	0.2530	9.6239
13.2253	0.6802	0.2518	9.6251
13.2303	0.6921	0.2483	9.6059
13.2353	0.6706	0.2339	9.6538
13.2403	0.6808	0.2578	9.6101
13.2453	0.6694	0.2554	9.6281
13.2503	0.6879	0.2411	9.6089
13.2553	0.6951	0.2447	9.6275
13.2603	0.6814	0.2471	9.6269
13.2653	0.6670	0.2429	9.6526
13.2703	0.6712	0.2524	9.6275
13.2753	0.6670	0.2668	9.6765
13.2803	0.6837	0.2459	9.6670
13.2853	0.6873	0.2435	9.6442
13.2903	0.6802	0.2447	9.5970
13.2953	0.6760	0.2411	9.7034
13.3003	0.7035	0.2674	9.6263
13.3053	0.6646	0.2483	9.5814
13.3103	0.6748	0.2495	9.6568
13.3153	0.6831	0.2417	9.6729
13.3203	0.6748	0.2477	9.6305
13.3253	0.6766	0.2506	9.6514
13.3303	0.6981	0.2417	9.6311
13.3353	0.6975	0.2518	9.5856
13.3403	0.6688	0.2489	9.6233
13.3453	0.6802	0.2405	9.6299
13.3503	0.6879	0.2518	9.6400
13.3553	0.6467	0.2859	9.6352
13.3603	0.6963	0.2674	9.6197
13.3653	0.6688	0.2345	9.6149
13.3703	0.6825	0.2614	9.6867
13.3753	0.6742	0.2518	9.6460
13.3803	0.6437	0.2465	9.6095
13.3853	0.6831	0.2471	9.6263
13.3903	0.6837	0.2399	9.6006
13.3953	0.6628	0.2465	9.6394
13.4003	0.6694	0.2518	9.6472
13.4053	0.6915	0.2405	9.6305
13.4103	0.6772	0.2417	9.6502
13.4153	0.6706	0.2512	9.6370
13.4203	0.6903	0.2495	9.6400
13.4253	0.6796	0.2489	9.6765
13.4303	0.6975	0.2590	9.6454
13.4353	0.6945	0.2512	9.6281
13.4403	0.6921	0.2686	9.6341
13.4453	0.7017	0.2483	9.6215
13.4503	0.6802	0.2548	9.6047
13.4553	0.6957	0.2542	9.6185
13.4603	0.6700	0.2566	9.6155
13.4653	0.6688	0.2662	9.6364
13.4703	0.6736	0.2644	9.6484
13.4753	0.6963	0.2560	9.6149
13.4803	0.6766	0.2536	9.6502
0.0000	0.6790	0.2530	9.6825
0.0050	0.6849	0.2249	9.6269
0.0100	0.6610	0.2698	9.6598
0.0150	0.6939	0.2716	9.6622
0.0200	0.6939	0.2405	9.6311
0.0250	0.6670	0.2471	9.6059
0.0300	0.6754	0.2297	9.5988
0.0350	0.6634	0.2638	9.6741
0.0400	0.6670	0.2447	9.6376
0.0450	0.6664	0.2483	9.6245
0.0500	0.6837	0.2602	9.6323
0.0550	0.6664	0.2465	9.6592
0.0600	0.6646	0.2644	9.6544
0.0650	0.6658	0.2500	9.5724
0.0700	0.6754	0.2417	9.4983
0.0750	0.6730	0.2435	9.6442
0.0800	0.6712	0.2423	9.5647
0.0850	0.6718	0.2584	9.6329
0.0900	0.6981	0.2524	9.6795
0.0950	0.6969	0.2495	9.6077
0.1000	0.6742	0.2429	9.6317
0.1050	0.6694	0.2333	9.6065
0.1100	0.6550	0.2381	9.6281
0.1150	0.6855	0.2453	9.6305
0.1200	0.6730	0.2357	9.6777
0.1250	0.6831	0.2602	9.6041
0.1300	0.6927	0.2399	9.6676
0.1350	0.6796	0.2417	9.7740
0.1400	0.6837	0.2489	9.6017
0.1450	0.6969	0.2506	9.6299
0.1500	0.6843	0.2506	9.6149
0.1550	0.6843	0.2524	9.6735
0.1600	0.6706	0.2441	9.7663
0.1650	0.6921	0.2578	9.6460
0.1700	0.7035	0.2471	9.6532
0.1750	0.7149	0.2536	9.6598
0.1800	0.6341	0.2435	9.5856
0.1850	0.6766	0.2411	9.6251
0.1900	0.6999	0.2835	9.6281
0.1950	0.6652	0.2225	9.6430
0.2000	0.6790	0.2602	9.6221
0.2050	0.6401	0.2447	9.5976
0.2100	0.7166	0.2566	9.6406
0.2150	0.6694	0.2608	9.6149
0.2200	0.6574	0.2495	9.6035
0.2250	0.6933	0.2518	9.6388
0.2300	0.6808	0.2423	9.6610
0.2350	0.6700	0.2489	9.6131
0.2400	0.6802	0.2363	9.6430
0.2450	0.6730	0.2536	9.6705
0.2500	0.6718	0.2465	9.6418
0.2550	0.6682	0.2614	9.6400
0.2600	0.6718	0.2423	9.6472
0.2650	0.6891	0.2674	9.5814
0.2700	0.6951	0.2560	9.6329
0.2750	0.6700	0.2584	9.6484
0.2800	0.6969	0.2542	9.6335
0.2850	0.6754	0.2381	9.6352
0.2900	0.6909	0.2626	9.6281
0.2950	0.6981	0.2465	9.6239
0.3000	0.6742	0.2483	9.6568
0.3050	0.6778	0.2578	9.6227
0.3100	0.6915	0.2399	9.6149
0.3150	0.6766	0.2608	9.6131
0.3200	0.6766	0.2518	9.6191
0.3250	0.6861	0.2483	9.6358
0.3300	0.6449	0.2566	9.6382
0.3350	0.6622	0.2608	9.6197
0.3400	0.6861	0.2512	9.6125
0.3450	0.6814	0.2405	9.6544
0.3500	0.6784	0.2297	9.6035
0.3550	0.6538	0.2530	9.6311
0.3600	0.6592	0.2465	9.6454
0.3650	0.6999	0.2590	9.6299
0.3700	0.6748	0.2668	9.6179
0.3750	0.6784	0.2465	9.6586
0.3800	0.6825	0.2668	9.6293
0.3850	0.6664	0.2674	9.6341
0.3900	0.6652	0.2369	9.6550
0.3950	0.6909	0.2536	9.6616
0.4000	0.6670	0.2339	9.6323
0.4050	0.6706	0.2578	9.6257
0.4100	0.6975	0.2752	9.6047
0.4150	0.6724	0.2656	9.6257
0.4200	0.6598	0.2608	9.6556
0.4250	0.6837	0.2375	9.6251
0.4300	0.6742	0.2417	9.6329
0.4350	0.6766	0.2584	9.6287
0.4400	0.7065	0.2453	9.6508
0.4450	0.6993	0.2495	9.6239
0.4500	0.7047	0.2429	9.6622
0.4550	0.6718	0.2285	9.6185
0.4600	0.6808	0.2686	9.6161
0.4650	0.6939	0.2698	9.5928
0.4700	0.6855	0.2483	9.6358
0.4750	0.6921	0.2674	9.6556
0.4800	0.6778	0.2447	9.6323
0.4850	0.6831	0.2512	9.6562
0.4900	0.6736	0.2566	9.5976
0.4950	0.6700	0.2530	9.6676
0.5000	0.7011	0.2100	9.6927
0.5050	0.6814	0.2345	9.6161
0.5100	0.6939	0.3236	9.6358
0.5150	0.7484	0.0514	9.4211
0.5200	0.8249	0.2901	9.8045
0.5250	0.7250	0.4845	9.5371
0.5300	0.7460	0.4421	9.7944
0.5350	0.7059	-0.0664	9.8075
0.5400	-0.1621	0.5426	7.8975
0.5450	0.1711	-0.1292	9.3732
0.5500	0.8159	-0.1986	8.3144
0.5550	0.9834	0.1143	7.9435
0.5600	-0.1292	0.3978	11.2289
0.5650	1.2550	-0.0556	10.5816
0.5700	0.2937	0.4211	9.3894
0.5750	1.5613	0.0102	10.9627
0.5800	-0.0311	1.4925	9.8632
0.5850	1.2819	-0.6173	8.8899
0.5900	1.4710	1.4261	10.8161
0.5950	0.7495	0.1543	10.5505
0.6000	0.5420	0.0814	9.5336
0.6050	0.8369	-0.0514	9.0520
0.6100	0.6993	0.5593	10.2137
0.6150	0.5892	0.2333	9.6825
0.6200	0.8028	-0.1298	9.1788
0.6250	0.2297	0.7807	9.4384
0.6300	1.1168	0.1567	9.1244
0.6350	0.3990	0.5653	10.2388
0.6400	0.7352	-0.1328	9.4642
0.6450	0.8829	0.3021	9.4666
0.6500	0.5414	0.2321	9.1070
0.6550	0.8961	-0.2776	9.6622
0.6600	1.0187	-0.3799	9.3762
0.6650	1.2873	0.2010	9.5784
0.6700	0.9248	0.5348	10.8209
0.6750	1.3322	0.2937	9.8632
0.6800	0.5503	0.2596	9.7507
0.6850	0.7472	0.1830	9.2416
0.6900	0.2704	0.7280	10.5182
0.6950	-0.2477	0.3637	10.7623
0.7000	0.9458	0.5635	9.2853
0.7050	0.6873	1.0600	9.9786
0.7100	0.5821	0.9176	10.1551
0.7150	0.8309	-0.3673	9.5180
0.7200	0.2824	-0.1513	9.9373
0.7250	0.4804	0.1310	9.9439
0.7300	0.5641	0.5695	9.6831
0.7350	0.5300	0.2734	8.9970
0.7400	1.1198	0.1693	9.5138
0.7450	0.5629	0.4463	8.7350
0.7500	0.5222	0.3015	9.2548
0.7550	0.5862	0.1262	8.9013
0.7600	0.8058	0.3296	9.4654
0.7650	0.5055	0.2692	9.4552
0.7700	0.5868	0.3111	9.9774
0.7750	0.6449	0.1119	10.1916
0.7800	0.8040	0.2895	9.8727
0.7850	0.7813	0.1304	10.2185
0.7900	0.4457	-0.2016	9.4343
0.7950	1.0893	-0.2746	10.1844
0.8000	1.4159	-0.7137	9.2249
0.8050	0.3541	0.9099	9.4271
0.8100	0.6173	0.2614	8.9330
0.8150	0.8076	0.2327	9.0622
0.8200	0.4570	0.7334	9.7429
0.8250	0.1986	-0.5055	9.9714
0.8300	1.0277	-0.2028	10.1395
0.8350	0.6574	-0.0796	9.2010
0.8400	0.6293	-0.2728	9.6454
0.8450	1.1581	0.6263	8.6045
0.8500	0.8650	0.4965	10.4063
0.8550	0.6203	-0.6640	9.8937
0.8600	0.8596	0.6126	10.2299
0.8650	0.1651	-0.1089	9.1124
0.8700	0.4056	0.2094	8.7529
0.8750	0.3972	0.6120	8.9856
0.8800	0.8183	-0.2040	9.3924
0.8850	1.1408	0.3805	8.9174
0.8900	0.3278	0.5557	8.3300
0.8950	0.4146	0.1304	8.5208
0.9000	0.9649	-0.0682	9.7369
0.9050	0.8136	-0.0724	11.2797
0.9100	0.3164	0.5695	9.7166
0.9150	-0.0102	0.1956	8.8313
0.9200	1.4064	1.2885	9.8889
0.9250	0.2034	0.9188	10.6277
0.9300	0.2668	0.0742	9.8937
0.9350	0.8770	-0.6443	8.6464
0.9400	0.6437	0.6251	8.8145
0.9450	1.1450	1.2245	9.9559
0.9500	0.2267	0.7023	9.9044
0.9550	0.1328	0.4493	10.6570
0.9600	1.2149	-0.0766	10.2741
0.9650	0.0718	-0.2231	9.1232
0.9700	1.2449	-0.3565	9.2835
0.9750	0.5665	1.1073	9.7417
0.9800	0.3272	1.1294	9.8428
0.9850	0.9099	-0.5551	9.9475
0.9900	0.1537	1.1031	9.4666
0.9950	0.6221	0.3422	9.5539
1.0000	0.5809	0.6580	9.1399
1.0050	1.0313	0.7304	9.2087
1.0100	0.1669	0.8889	9.6358
1.0150	0.8704	-0.1507	9.1824
1.0200	0.8201	1.0373	9.9385
1.0250	0.1968	-0.2931	9.9170
1.0300	1.1761	0.2638	9.7908
1.0350	0.6365	0.9105	10.0576
1.0400	0.6455	-0.5916	9.2027
1.0450	0.3505	0.0951	9.6065
1.0500	0.8345	0.3117	8.9342
1.0550	0.0066	0.1370	9.7220
1.0600	1.0349	0.2895	9.5312
1.0650	0.9278	0.1986	9.5724
1.0700	0.8997	-0.0185	9.9003
1.0750	0.2016	1.0038	9.4354
1.0800	0.8877	-0.1232	9.4594
1.0850	0.5001	0.9368	10.0755
1.0900	0.9691	-0.3093	9.3481
1.0950	0.7202	0.1531	9.4091
1.1000	0.7519	0.7699	9.1974
1.1050	0.7759	0.7669	10.1868
1.1100	0.2213	0.1364	9.2506
1.1150	1.3131	0.0634	9.5096
1.1200	0.8309	0.8285	10.0534
1.1250	0.4181	0.2207	9.5467
1.1300	0.8578	0.9141	9.8255
1.1350	0.8004	-0.0885	9.8327
1.1400	1.0193	0.8746	9.8961
1.1450	0.5294	-0.2500	9.1393
1.1500	0.7125	0.1196	9.6807
1.1550	0.4397	-0.3691	8.7810
1.1600	0.9224	-0.3619	9.2351
1.1650	0.1591	0.1436	9.5862
1.1700	0.1801	-0.5480	8.4269
1.1750	1.0128	0.1759	9.7908
1.1800	0.8644	0.5168	10.0037
1.1850	1.0875	1.0163	9.2793
1.1900	1.0624	-0.1077	9.7938
1.1950	0.3057	1.3669	11.0422
1.2000	0.4385	-0.0562	9.8380
1.2050	0.7489	0.1872	9.8709
1.2100	0.0837	0.6461	9.9613
1.2150	1.2837	-0.7089	8.3958
1.2200	0.7950	-0.2435	8.7158
1.2250	0.8279	0.3398	8.1397
1.2300	0.4947	0.3972	9.8273
1.2350	1.0379	0.1729	9.9469
1.2400	0.4498	0.3811	9.7417
1.2450	0.7352	0.9822	9.6741
1.2500	0.1029	0.4152	9.7734
1.2550	1.3160	-0.5450	9.0353
1.2600	0.7501	0.5073	9.7806
1.2650	1.2239	0.1825	9.7238
1.2700	0.4947	0.0568	9.5694
1.2750	0.9362	0.1693	9.9493
1.2800	1.0821	-0.4295	8.2546
1.2850	0.1053	1.0146	9.0412
1.2900	0.4361	0.1651	9.5108
1.2950	0.5515	0.3230	9.5336
1.3000	-0.1131	0.4887	9.7202
1.3050	1.0271	-0.4295	9.3673
1.3100	0.8429	0.6969	11.1984
1.3150	0.1872	0.0981	10.5343
1.3200	0.9344	-0.3643	9.5509
1.3250	0.1561	-0.5037	8.9168
1.3300	1.1575	0.0156	10.4811
1.3350	0.8219	0.9870	9.8380
1.3400	0.5767	0.3039	10.1042
1.3450	0.5270	-0.2195	9.5677
1.3500	1.0098	-0.2512	8.0596
1.3550	0.7860	0.2788	10.0414
1.3600	-0.3278	1.2203	9.9032
1.3650	0.8494	-0.2393	10.2137
1.3700	0.4409	0.6778	9.0628
1.3750	1.2443	0.0132	9.8416
1.3800	0.4343	0.3434	9.7740
1.3850	0.1549	0.9673	9.4899
1.3900	-0.0502	-0.1071	11.1589
1.3950	1.1444	0.2130	9.6753
1.4000	1.2461	-1.0851	9.8835
1.4050	0.6359	1.0151	10.6911
1.4100	0.6473	-0.3176	10.0588
1.4150	0.2626	0.5246	9.6574
1.4200	1.3077	0.2991	9.9314
1.4250	1.2365	-0.3840	9.5276
1.4300	0.6814	0.2375	9.0622
1.4350	1.1450	0.2907	9.2608
1.4400	0.0969	0.2680	8.7732
1.4450	1.2281	0.1920	9.3314
1.4500	0.4128	0.0359	8.9330
1.4550	1.1545	0.1573	8.5411
1.4600	0.5049	0.3523	10.2825
1.4650	-0.3685	0.2327	10.1718
1.4700	1.0827	0.0664	9.9667
1.4750	0.8387	1.0391	9.8440
1.4800	0.6885	0.0766	9.3116
1.4850	1.2335	0.2650	9.7615
1.4900	0.8010	0.2764	9.0717
1.4950	1.0642	0.4498	10.0127
1.5000	-0.2722	0.8500	9.1740
1.5050	1.2724	-0.3410	8.5734
1.5100	0.0090	0.9721	11.1218
1.5150	0.2686	0.5091	8.5716
1.5200	0.7992	0.4319	9.1944
1.5250	1.3101	0.3900	9.9397
1.5300	0.4564	1.0092	11.0847
1.5350	0.8889	-0.0090	8.7409
1.5400	0.6018	0.3888	9.2542
1.5450	0.6688	0.6778	10.1635
1.5500	0.3051	0.3117	10.4285
1.5550	1.3406	-0.5892	8.3689
1.5600	0.7376	0.8243	11.8193
1.5650	0.3338	0.1771	10.6612
1.5700	0.7723	-1.1085	10.7999
1.5750	0.9338	0.0520	9.3690
1.5800	0.5767	0.7149	9.4049
1.5850	0.6999	0.2782	9.0544
1.5900	0.5216	-0.3081	9.3768
1.5950	0.8740	-0.2955	8.8606
1.6000	1.2784	0.4959	10.9944
1.6050	0.5198	0.7669	10.0193
1.6100	1.2036	-1.0762	8.8516
1.6150	0.7172	0.1555	9.1621
1.6200	0.6173	0.2919	9.7322
1.6250	0.5988	-0.3511	9.5407
1.6300	0.7262	0.1460	9.7651
1.6350	0.8411	-0.0048	8.9916
1.6400	0.9643	0.3159	9.8440
1.6450	0.0514	0.2752	9.9463
1.6500	0.5228	-0.1819	9.2895
1.6550	1.1444	-0.5390	8.7158
1.6600	0.2058	0.8142	9.0269
1.6650	1.1695	-0.4337	9.3092
1.6700	-0.1119	1.2520	10.3609
1.6750	0.6574	-0.2219	8.8731
1.6800	0.3164	0.1274	8.8049
1.6850	-0.2040	0.7848	9.8482
1.6900	0.0993	0.2130	9.6358
1.6950	1.0026	-0.3326	8.7439
1.7000	-0.0311	1.0594	9.3409
1.7050	1.0534	0.2800	9.4815
1.7100	0.3715	0.5438	9.8039
1.7150	0.7926	-0.2195	8.4083
1.7200	0.1071	0.1005	7.7084
1.7250	1.0223	0.3673	8.9880
1.7300	0.0640	1.3131	10.3908
1.7350	0.9200	-0.3637	9.4935
1.7400	0.4247	0.2100	9.2691
1.7450	0.7531	1.2766	8.7445
1.7500	0.0855	0.6413	9.3984
1.7550	0.6383	0.3446	8.9084
1.7600	0.0389	-0.0365	9.1818
1.7650	1.3513	-0.3362	9.6221
1.7700	0.3876	0.4989	10.3351
1.7750	1.3878	-0.5109	10.1856
1.7800	1.0367	-0.4678	9.6933
1.7850	0.4558	0.9260	8.9294
1.7900	0.5468	0.3410	8.8540
1.7950	0.8046	1.4423	10.0546
1.8000	-0.1992	-0.2734	10.1282
1.8050	0.9948	-0.4516	9.0586
1.8100	0.9535	-0.1807	9.4271
1.8150	0.2566	-0.6395	9.2303
1.8200	0.7759	0.3320	9.1687
1.8250	0.7065	-0.1352	9.0873
1.8300	0.0592	0.3428	9.5629
1.8350	0.8752	0.3482	9.1238
1.8400	0.9272	0.2160	9.8027
1.8450	-0.1202	0.7783	9.1017
1.8500	1.4871	0.4642	9.1692
1.8550	0.6766	1.2024	9.5617
1.8600	0.2171	0.8560	9.1543
1.8650	0.6993	0.2195	9.8644
1.8700	0.4857	0.5294	9.6837
1.8750	0.9284	0.3595	9.6909
1.8800	0.5515	0.8644	10.1401
1.8850	1.1001	-0.1561	9.7824
1.8900	0.5300	0.4905	9.3415
1.8950	0.6197	-0.4929	9.4947
1.9000	1.2449	1.0104	8.9186
1.9050	0.4008	0.7621	9.4307
1.9100	1.3184	-0.5521	10.4141
1.9150	1.1922	1.0481	10.7216
1.9200	0.4666	-0.2632	8.9641
1.9250	0.7316	0.2686	9.2907
1.9300	0.3703	0.5438	9.3900
1.9350	0.3751	0.6700	9.8823
1.9400	0.9458	0.7298	10.0187
1.9450	-0.0078	0.1424	8.4646
1.9500	1.1043	-0.4325	8.3856
1.9550	0.2758	0.9063	9.0538
1.9600	1.3065	-0.0455	9.9314
1.9650	0.1543	1.0098	9.5294
1.9700	1.0917	-0.3218	8.9712
1.9750	0.6927	-0.1950	9.4008
1.9800	0.2034	1.0666	9.7058
1.9850	0.8644	0.4654	10.0600
1.9900	0.6144	-0.1244	9.1405
1.9950	1.4124	0.0090	9.6616
2.0000	-0.1938	0.8734	8.8265
2.0050	0.6000	-0.4845	9.9972
2.0100	0.4911	0.2949	10.7694
2.0150	-0.3296	0.1460	10.4039
2.0200	1.0319	-0.6831	10.1240
2.0250	0.8315	0.6909	9.5910
2.0300	0.0407	0.2901	9.7346
2.0350	1.0223	-0.4134	8.6817
2.0400	1.0379	-0.2943	8.8612
2.0450	0.9954	0.6957	8.4077
2.0500	-0.2997	1.1097	10.2000
2.0550	0.7274	0.2405	9.5084
2.0600	0.4325	0.8052	9.8386
2.0650	0.8171	-0.4223	10.4560
2.0700	0.8094	0.5844	10.2059
2.0750	0.6323	-0.7208	9.7543
2.0800	0.8369	0.3111	10.1790
2.0850	0.6790	0.3655	10.4572
2.0900	1.2299	-0.2554	9.1477
2.0950	0.3206	0.0718	8.6129
2.1000	1.2490	0.2614	10.1766
2.1050	-0.1597	1.1755	9.2931
2.1100	1.2508	-0.0479	9.6544
2.1150	-0.2776	0.9667	9.6634
2.1200	0.7729	-0.7023	10.3214
2.1250	0.4235	0.1364	10.7240
2.1300	0.1484	0.0383	9.1280
2.1350	0.4020	-0.0855	9.4372
2.1400	0.8770	0.9338	9.2243
2.1450	0.3577	0.0921	9.2482
2.1500	0.4714	1.1025	9.8231
2.1550	1.4482	-0.3153	9.4271
2.1600	0.8895	0.4498	9.6323
2.1650	0.2644	-0.0120	9.2434
2.1700	0.9876	0.0933	10.0516
2.1750	0.4271	0.8686	8.5830
2.1800	-0.0299	-0.2106	8.0817
2.1850	0.6389	-1.0343	8.8743
2.1900	1.3765	0.0520	11.2719
2.1950	0.2303	1.0325	9.2668
2.2000	0.4528	0.0784	9.1860
2.2050	1.2939	0.2112	10.0121
2.2100	0.4433	0.9679	9.9260
2.2150	1.0014	-0.4289	10.0342
2.2200	0.0532	0.5240	10.5254
2.2250	1.4016	-0.2046	10.0480
2.2300	0.6604	0.0963	9.2374
2.2350	0.9936	-0.0963	9.2656
2.2400	0.6885	0.4905	10.3585
2.2450	-0.4863	0.9751	9.5114
2.2500	0.8853	-0.4128	10.2442
2.2550	0.2459	0.6263	9.4468
2.2600	1.1234	-0.0855	9.6586
2.2650	0.2171	1.0367	10.3190
2.2700	1.1904	-0.4833	9.8871
2.2750	0.5575	0.7777	9.8416
2.2800	-0.0634	0.4235	9.4917
2.2850	0.9141	0.0718	8.9581
2.2900	0.9601	0.7884	9.2183
2.2950	0.6138	0.1783	9.3822
2.3000	0.2321	-0.0562	9.2195
2.3050	0.6718	-0.0233	9.5581
2.3100	0.8375	0.4612	8.9174
2.3150	0.4475	0.3996	9.7034
2.3200	1.6959	-0.5599	10.3782
2.3250	0.2590	-0.1813	9.2686
2.3300	0.9039	-0.1184	9.7746
2.3350	0.5707	0.6556	9.9750
2.3400	0.9667	-0.3517	9.8099
2.3450	0.9045	0.2716	9.4654
2.3500	0.8554	0.4158	9.6317
2.3550	0.8967	0.0909	9.8015
2.3600	0.5204	0.4193	9.7812
2.3650	0.6999	-0.0311	9.8177
2.3700	1.0074	0.5533	10.3788
2.3750	0.4044	1.2329	10.5475
2.3800	0.3344	-0.2088	8.7517
2.3850	0.9703	0.0060	9.6041
2.3900	0.4020	0.2560	9.5258
2.3950	0.6700	-0.2094	9.7136
2.4000	0.1388	0.7549	10.4285
2.4050	0.5629	0.1866	10.6277
2.4100	0.5731	0.8578	9.5066
2.4150	0.1603	-0.8273	9.8273
2.4200	0.9787	-0.1166	10.4937
2.4250	0.2919	0.0120	9.8530
2.4300	0.9595	-0.2829	9.4803
2.4350	0.3799	0.6090	9.9433
2.4400	0.0167	-0.5563	9.6047
2.4450	0.4385	0.0233	9.1669
2.4500	0.0706	-0.3242	8.6273
2.4550	1.0875	0.3858	8.7679
2.4600	1.0481	0.0814	9.9643
2.4650	0.4451	1.0457	9.9469
2.4700	0.3284	0.5402	9.4115
2.4750	0.1753	-0.0209	9.7914
2.4800	0.5761	0.0520	8.6273
2.4850	0.8399	0.2112	8.5202
2.4900	0.9272	0.3834	9.2518
2.4950	-0.0981	0.9099	8.7667
2.5000	0.7932	0.2483	9.1597
2.5050	1.0738	-0.3218	9.2380
2.5100	0.8548	1.1007	10.4183
2.5150	0.2961	-0.1807	10.2287
2.5200	0.7077	0.0568	10.3184
2.5250	1.1246	0.2656	10.3651
2.5300	0.2512	0.9834	10.6911
2.5350	1.2610	-0.7836	9.4965
2.5400	1.1390	-0.5474	9.3373
2.5450	0.6885	0.2710	9.4079
2.5500	0.3751	-0.1280	9.7148
2.5550	0.4636	-0.1699	10.0019
2.5600	0.6820	0.3655	9.2345
2.5650	0.5462	0.2554	9.4438
2.5700	0.9105	0.2118	9.5336
2.5750	0.9703	0.0299	9.5581
2.5800	0.5773	0.4504	8.6297
2.5850	0.7430	0.2058	9.1148
2.5900	0.8686	0.4714	10.0444
2.5950	0.0939	0.3589	9.8159
2.6000	0.8794	-0.1920	8.8097
2.6050	0.0185	-0.0832	8.7565
2.6100	0.7944	0.2357	9.1585
2.6150	0.4624	0.6849	9.9140
2.6200	1.2921	0.1466	10.2855
2.6250	0.9386	0.2788	10.0899
2.6300	0.2070	0.5294	10.2843
2.6350	0.5264	-0.2345	10.4560
2.6400	0.3817	0.5097	9.5940
2.6450	1.3860	0.3834	9.3206
2.6500	0.3320	-0.0688	8.2414
2.6550	0.9649	0.4134	9.2087
2.6600	0.5755	0.2536	9.4857
2.6650	-0.4110	1.3765	10.6031
2.6700	0.1825	-0.1765	10.0642
2.6750	0.5246	0.3045	9.9427
2.6800	1.3256	0.1448	9.4175
2.6850	1.0845	0.8100	10.7826
2.6900	0.9069	-0.4887	9.5503
2.6950	1.0732	0.5922	8.9694
2.7000	0.0012	1.2616	10.4063
2.7050	1.3274	-0.6951	9.3649
2.7100	-0.2668	-0.0371	10.0660
2.7150	0.2405	0.2722	9.1411
2.7200	0.9679	-0.6078	8.4143
2.7250	0.7149	0.8124	9.7639
2.7300	0.8620	0.0664	10.3932
2.7350	0.3876	0.3685	10.2562
2.7400	1.0774	-0.7071	9.4313
2.7450	0.6502	0.6736	8.3659
2.7500	0.0808	0.4905	9.4175
2.7550	0.4510	-0.3864	9.0532
2.7600	0.5168	1.1755	9.4378
2.7650	0.6161	-0.2040	9.5700
2.7700	1.2885	1.2796	10.2131
2.7750	0.8710	0.5701	9.6053
2.7800	-0.0473	1.0821	9.2626
2.7850	-0.0096	-0.3978	9.0376
2.7900	1.3854	-0.5204	8.3318
2.7950	1.4764	0.9188	10.6283
2.8000	0.0245	0.0945	10.7210
2.8050	0.7567	-0.2668	8.6016
2.8100	0.8189	0.9075	9.2817
2.8150	0.8961	0.2255	9.7441
2.8200	0.4953	-0.0114	10.0917
2.8250	1.2102	0.1950	9.5772
2.8300	0.5773	1.1210	10.2909
2.8350	1.3555	0.3661	9.3397
2.8400	0.7836	0.3314	9.9822
2.8450	1.7791	-0.4026	9.5581
2.8500	0.4983	0.0006	10.1222
2.8550	0.7633	0.0443	9.6113
2.8600	0.4463	0.2040	10.3549
2.8650	0.6562	0.6628	10.9190
2.8700	0.5157	-0.4887	8.4795
2.8750	0.5533	0.3529	9.5497
2.8800	0.9111	0.2237	10.0612
2.8850	0.3966	1.1922	9.5754
2.8900	1.2461	-0.4295	9.7812
2.8950	0.1406	0.7178	10.4476
2.9000	0.6736	0.1436	9.9589
2.9050	0.5210	-0.0281	8.2887
2.9100	0.8459	0.3649	9.4157
2.9150	0.3709	0.8979	9.8949
2.9200	0.4672	-0.0419	8.4646
2.9250	0.4869	0.1328	9.1992
2.9300	0.8806	0.3978	9.2123
2.9350	0.5850	0.7609	9.5605
2.9400	0.0078	0.3846	9.4923
2.9450	0.7591	0.2004	10.2311
2.9500	0.9511	0.3416	10.3998
2.9550	0.4863	0.5342	10.3758
2.9600	0.8818	-0.4445	9.1250
2.9650	0.9440	-0.0120	9.8985
2.9700	0.0329	0.4576	9.8883
2.9750	0.5958	-0.1585	10.1790
2.9800	0.1591	-0.1854	9.3188
2.9850	1.5105	-0.4217	10.1449
2.9900	0.0826	0.2895	9.6801
2.9950	1.4177	0.1825	10.2795
3.0000	1.2383	-0.0018	9.9726
3.0050	0.7687	0.4062	10.1312
3.0100	0.8614	-0.0479	9.3176
3.0150	1.0498	0.4403	8.7302
3.0200	0.4169	-0.2764	9.0574
3.0250	0.7238	0.8142	9.5180
3.0300	1.1886	0.1848	9.8841
3.0350	0.9266	0.0024	10.3573
3.0400	0.4307	0.5013	10.5936
3.0450	1.1503	-0.1561	10.1970
3.0500	0.3188	0.5527	9.7830
3.0550	0.9673	0.2596	10.3495
3.0600	0.3954	0.8560	10.0977
3.0650	0.5671	-0.4798	9.5467
3.0700	0.4026	0.2279	9.3092
3.0750	0.9260	0.4708	9.9457
3.0800	0.7430	0.3123	9.6149
3.0850	0.5282	0.3924	9.9355
3.0900	0.3643	0.2710	10.0043
3.0950	0.5019	-0.2764	9.5533
3.1000	1.0935	-0.1454	9.8787
3.1050	0.8387	0.4917	9.2985
3.1100	1.0624	-0.0718	9.3499
3.1150	0.5168	0.2841	9.1196
3.1200	0.4564	-0.0371	9.6927
3.1250	0.5515	0.4110	8.7798
3.1300	0.7681	0.1842	9.4941
3.1350	0.9248	0.8626	9.8434
3.1400	1.1300	0.1382	9.4325
3.1450	0.7172	0.8542	9.6364
3.1500	0.7346	0.4947	9.0735
3.1550	0.5952	-0.2112	9.9236
3.1600	0.6120	0.6748	10.5505
3.1650	0.8028	-0.3356	10.3740
3.1700	0.3386	0.4630	9.6388
3.1750	0.5952	-0.1543	10.2197
3.1800	0.6048	0.7334	10.1485
3.1850	0.7304	0.3470	10.2514
3.1900	0.6837	0.2148	9.2123
3.1950	0.5168	0.0688	9.6137
3.2000	1.0492	-0.4199	9.4253
3.2050	0.1083	0.5617	9.2518
3.2100	0.3494	0.3990	9.1603
3.2150	0.4068	1.2861	8.9665
3.2200	0.5270	0.3182	9.7274
3.2250	0.6508	0.2776	9.2392
3.2300	0.3601	0.7089	9.8255
3.2350	0.9326	0.0694	9.5431
3.2400	0.2710	0.9571	9.6598
3.2450	1.1264	-0.4756	9.0323
3.2500	0.3649	1.0235	10.5062
3.2550	0.9763	-0.0778	8.9120
3.2600	1.3669	0.1352	9.6358
3.2650	0.9087	0.1286	9.5401
3.2700	0.6054	-0.0275	10.0648
3.2750	0.4881	-0.3212	9.9469
3.2800	0.6670	0.4038	10.1946
3.2850	0.4714	-0.2435	9.9780
3.2900	0.8207	-0.6018	9.8237
3.2950	1.1456	0.0425	8.9904
3.3000	0.6359	1.1623	9.5359
3.3050	1.0917	-0.0957	8.9976
3.3100	1.2754	0.4582	11.0338
3.3150	0.6144	0.1107	9.9284
3.3200	0.8249	0.0048	9.0693
3.3250	0.9942	0.9631	9.6783
3.3300	1.2993	-0.0269	9.1340
3.3350	0.6640	0.6825	9.9332
3.3400	1.1456	-0.3661	9.8488
3.3450	0.0778	0.8638	10.1623
3.3500	0.1161	0.3733	9.7992
3.3550	0.9607	0.0347	9.5018
3.3600	0.5270	0.5468	9.4672
3.3650	1.0235	0.3230	10.1132
3.3700	0.4020	0.3990	9.7950
3.3750	0.6042	0.2656	9.1651
3.3800	1.0134	0.6161	9.1381
3.3850	0.3655	0.3912	9.7190
3.3900	1.2897	0.3147	9.8949
3.3950	0.1137	0.6634	9.8823
3.4000	1.0672	-0.2273	8.4251
3.4050	0.3936	1.1491	10.1641
3.4100	0.0018	0.0078	9.1346
3.4150	0.8829	-0.9769	9.9529
3.4200	0.5049	0.3984	10.3316
3.4250	0.6221	0.6748	9.9439
3.4300	0.1896	1.0678	10.0666
3.4350	0.6371	-0.0945	9.9427
3.4400	0.2130	0.2794	10.8556
3.4450	0.9487	-0.2907	9.7459
3.4500	1.4070	-0.1490	9.8255
3.4550	1.1689	-0.1358	9.6526
3.4600	0.1693	0.9266	10.0259
3.4650	1.2167	-0.4845	9.9254
3.4700	0.3535	0.3428	10.4488
3.4750	0.7059	-0.3978	9.6681
3.4800	0.9458	1.5589	9.7202
3.4850	1.1994	-0.5910	8.4622
3.4900	0.6461	0.8136	9.1585
3.4950	0.9170	0.4475	9.3972
3.5000	0.9541	0.0832	9.6723
3.5050	0.7484	0.8285	9.0245
3.5100	0.8351	0.7968	9.0562
3.5150	0.6861	1.1210	9.6771
3.5200	1.0750	0.3117	9.7435
3.5250	0.6317	0.1549	11.0458
3.5300	0.9906	-0.8698	11.1523
3.5350	0.1262	0.7226	10.3657
3.5400	0.3362	-0.1107	9.5892
3.5450	0.6437	0.3302	10.3028
3.5500	0.8219	0.0556	10.1497
3.5550	1.0504	-0.1376	10.0342
3.5600	0.1418	0.9416	10.0546
3.5650	0.8997	0.5151	9.3619
3.5700	1.0528	0.9278	8.8606
3.5750	0.7220	0.3416	8.6859
3.5800	1.2245	-0.0508	9.5186
3.5850	0.1484	0.4827	10.2418
3.5900	0.2447	0.1448	9.1088
3.5950	0.0855	0.1561	9.2931
3.6000	1.2496	-0.3805	8.9389
3.6050	0.8584	-0.1687	9.6622
3.6100	1.3448	0.1496	9.6735
3.6150	0.3894	0.2189	8.8749
3.6200	0.7358	1.1037	9.1758
3.6250	0.8865	0.2584	8.5160
3.6300	-0.0843	0.5312	9.5868
3.6350	1.4022	-0.7484	9.4420
3.6400	0.5402	0.4594	10.3932
3.6450	0.9888	0.4534	9.8392
3.6500	0.4074	0.3703	9.4893
3.6550	1.3543	-0.9972	10.1389
3.6600	0.4576	0.7244	10.1162
3.6650	0.2865	-0.4606	9.1962
3.6700	0.0281	0.8118	8.6949
3.6750	0.7495	0.4869	9.7890
3.6800	-0.0060	0.6855	10.1258
3.6850	1.1635	0.7585	10.0085
3.6900	0.5563	0.6066	10.0588
3.6950	1.0941	0.6185	9.1746
3.7000	0.5850	0.1268	10.0307
3.7050	0.7992	0.5844	10.0887
3.7100	0.9751	-0.6263	10.0857
3.7150	-0.1382	0.4187	10.0193
3.7200	1.2544	-0.7107	9.7447
3.7250	0.2776	1.0080	9.2793
3.7300	0.3948	0.2357	9.5772
3.7350	0.2183	0.6646	9.7627
3.7400	1.6283	-0.3314	9.7585
3.7450	0.9260	1.2873	11.1056
3.7500	0.8614	0.3278	8.9898
3.7550	0.6987	0.5019	9.7088
3.7600	1.1168	-0.4600	8.7110
3.7650	0.8034	0.2333	9.9846
3.7700	1.0223	-0.0532	9.8859
3.7750	0.4666	0.5180	10.3076
3.7800	0.5216	0.5294	9.5593
3.7850	1.6642	0.6706	10.1748
3.7900	0.8118	-0.2052	10.1473
3.7950	1.1001	-0.4301	9.7268
3.8000	0.7029	0.2955	9.3110
3.8050	0.1292	0.6407	10.4398
3.8100	0.4205	0.9075	10.5260
3.8150	0.7531	-0.0335	9.9338
3.8200	0.7723	0.1585	9.9912
3.8250	1.0289	0.7681	9.3577
3.8300	1.1587	-0.0353	9.8925
3.8350	1.3460	0.6108	9.3116
3.8400	0.5139	0.6634	9.9649
3.8450	0.7226	-0.1747	9.2847
3.8500	0.1352	0.7149	9.3589
3.8550	0.3278	-0.3266	8.9730
3.8600	-0.0096	0.4588	8.6991
3.8650	1.1133	0.2620	10.1569
3.8700	0.4038	0.2124	10.3501
3.8750	1.1671	1.1318	9.8297
3.8800	0.6909	0.7836	8.7942
3.8850	0.5988	0.6790	8.5298
3.8900	0.6658	0.0628	9.4097
3.8950	0.3236	-0.2853	8.9120
3.9000	0.1214	-0.0323	8.8414
3.9050	0.5755	0.0622	9.7669
3.9100	0.2518	0.6730	9.4408
3.9150	0.6293	0.0072	9.6436
3.9200	0.0909	0.7089	9.5150
3.9250	1.0187	0.1041	9.4977
3.9300	0.9476	0.1819	9.9116
3.9350	1.0397	0.3661	9.8237
3.9400	0.4780	-0.2082	10.0642
3.9450	-0.1089	0.7609	9.5282
3.9500	1.0283	-1.0816	9.6400
3.9550	0.3488	0.3912	9.9852
3.9600	0.8895	0.0754	9.9451
3.9650	0.7525	0.7077	11.0105
3.9700	0.8201	-0.3123	10.9286
3.9750	0.6078	0.4140	9.7250
3.9800	0.3087	-0.3840	9.2380
3.9850	1.0911	-0.0724	8.9306
3.9900	0.7011	-0.0993	8.8145
3.9950	0.3230	0.4857	9.4486
4.0000	1.0014	0.5964	10.5583
4.0050	-0.0664	0.6969	9.7519
4.0100	1.2437	0.0796	9.1357
4.0150	1.3119	0.5647	9.1375
4.0200	1.3394	0.1830	9.7130
4.0250	0.6670	0.0341	9.5060
4.0300	0.9679	0.0000	9.2991
4.0350	0.7956	0.3763	9.6221
4.0400	0.5611	0.1232	9.4761
4.0450	0.9152	-0.3984	11.1565
4.0500	0.3781	0.4175	9.1549
4.0550	0.4642	0.6784	9.8225
4.0600	0.2746	0.2913	9.6610
4.0650	0.9224	0.0562	10.2221
4.0700	0.6622	0.5390	10.0115
4.0750	0.4439	0.6550	10.5140
4.0800	0.3135	0.9027	11.2402
4.0850	0.2279	-0.6790	8.8426
4.0900	0.4708	0.6000	8.9395
4.0950	0.8979	-0.1113	10.3722
4.1000	0.6191	0.4181	10.3842
4.1050	0.4684	-0.0042	10.1928
4.1100	0.3984	0.1358	8.6733
4.1150	0.2835	1.0792	9.9451
4.1200	0.0646	0.3446	9.4205
4.1250	1.0965	0.2620	9.4354
4.1300	0.4935	0.6939	9.4181
4.1350	1.3687	-0.4092	9.6759
4.1400	-0.0903	0.6383	9.5898
4.1450	0.9631	-0.6490	8.7266
4.1500	0.3505	0.8973	9.0867
4.1550	0.6652	0.1071	9.2075
4.1600	0.7059	0.2267	9.3200
4.1650	1.2197	0.8483	10.3028
4.1700	0.6329	0.2189	9.2793
4.1750	0.5348	0.6502	9.3589
4.1800	1.0391	0.0945	8.9539
4.1850	0.6825	0.4038	10.1676
4.1900	0.4983	0.3123	9.7968
4.1950	0.3679	-0.4833	9.9702
4.2000	1.3950	-0.3057	9.8183
4.2050	-0.1232	0.5264	9.8530
4.2100	0.4750	-0.1693	10.4727
4.2150	0.9141	0.3093	9.8434
4.2200	0.9368	0.1807	9.6658
4.2250	0.7256	0.5390	9.6711
4.2300	0.8985	0.2231	9.5276
4.2350	0.9487	0.5551	10.5762
4.2400	0.6754	0.1256	10.2017
4.2450	0.7759	-0.4923	9.5922
4.2500	1.0295	0.1741	9.8321
4.2550	0.2417	0.2189	9.1716
4.2600	1.0169	0.7077	9.2566
4.2651	0.6431	0.6586	8.7924
4.2701	0.7555	0.4229	9.7028
4.2751	0.3164	0.1920	10.0612
4.2801	1.1426	-0.0102	8.8127
4.2851	0.6706	-0.6090	9.0173
4.2901	1.0887	0.8279	10.1682
4.2951	0.5432	0.0508	9.5509
4.3001	1.2233	0.4792	9.1226
4.3051	0.3344	0.8022	8.8618
4.3101	0.6772	-0.1041	10.2346
4.3151	0.6682	0.1501	9.4067
4.3201	0.6042	0.0945	9.4450
4.3251	1.3280	0.4516	9.8500
4.3301	-0.3039	0.3464	9.4366
4.3351	1.1994	-0.4510	9.8955
4.3401	0.4271	1.0319	9.7986
4.3451	0.6610	-0.0700	10.3058
4.3501	0.4600	0.1992	10.4997
4.3551	1.0056	-0.2979	10.2837
4.3601	0.6688	-0.1346	9.2907
4.3651	1.7049	1.4919	9.2027
4.3701	0.2483	0.3338	9.2380
4.3751	0.8692	0.5306	9.1477
4.3801	0.8483	0.1980	10.0959
4.3851	0.1095	0.4510	9.1011
4.3901	0.9158	0.3709	8.5381
4.3951	0.5761	0.4624	9.4349
4.4001	0.3087	0.7304	8.5555
4.4051	0.4504	0.5934	9.1268
4.4101	0.8219	0.0598	9.8775
4.4151	0.4887	0.5013	9.4486
4.4201	0.5791	0.6287	9.3870
4.4251	0.4816	-0.4373	9.4791
4.4301	1.7031	-0.3392	9.8650
4.4351	0.2829	0.3362	9.7489
4.4401	0.8913	0.1226	9.5904
4.4451	-0.1681	0.9350	10.4267
4.4501	1.2610	-0.0568	9.8159
4.4551	0.8010	0.6401	10.1617
4.4601	0.4552	0.3691	9.7944
4.4651	0.9123	0.1244	9.5611
4.4701	-0.2040	1.1061	9.9918
4.4751	1.2831	-0.0849	8.9700
4.4801	0.0927	0.3398	9.5449
4.4851	0.8213	-0.0395	9.1746
4.4901	0.8913	0.0897	9.9164
4.4951	0.9858	0.1304	8.9515
4.5001	0.3547	0.8231	10.2269
4.5051	0.3392	-0.2130	9.2614
4.5101	0.4929	0.4391	9.8374
4.5151	0.9523	-0.5456	8.9958
4.5201	0.9649	0.5707	10.1994
4.5251	0.5844	-0.8028	9.2572
4.5301	0.8590	0.7238	9.7657
4.5351	0.0275	0.2991	8.4305
4.5401	1.4213	-0.2626	9.7914
4.5451	1.0367	0.7155	9.6664
4.5501	1.2550	-0.5832	9.7980
4.5551	0.6114	0.9607	8.2905
4.5601	0.6652	0.4098	10.3543
4.5651	0.4786	0.1256	10.0354
4.5701	0.8632	0.5139	9.9385
4.5751	0.4056	-0.1908	10.2119
4.5801	0.7824	0.3230	9.2781
4.5851	1.4106	-0.6682	10.0540
4.5901	0.3924	0.7723	9.2380
4.5951	0.8177	-0.0664	9.5934
4.6001	0.2925	0.5043	10.0857
4.6051	0.9194	1.1515	9.2985
4.6101	0.5898	0.6592	8.6398
4.6151	0.4810	0.4534	9.8267
4.6201	0.9117	0.6778	9.8416
4.6251	0.2040	0.3099	9.8255
4.6301	0.9679	0.0173	9.2231
4.6351	0.5390	1.3160	9.2889
4.6401	0.7160	0.4612	9.3852
4.6451	0.8512	0.3972	10.0079
4.6501	0.7017	0.5067	8.8648
4.6551	0.3691	0.1292	9.4959
4.6601	0.4576	-0.8267	8.7248
4.6651	0.6879	0.3141	9.2763
4.6701	0.6227	0.6981	9.2913
4.6751	0.3828	0.2662	9.8321
4.6801	0.5240	0.3900	9.7740
4.6851	0.8979	0.1220	9.9792
4.6901	0.7430	-0.0233	10.3986
4.6951	1.5266	0.1220	10.4590
4.7001	0.3673	0.3823	9.9655
4.7051	1.1623	-0.5952	8.9294
4.7101	1.2078	0.7011	9.6053
4.7151	0.0156	0.3272	9.2374
4.7201	0.7663	0.7155	8.9395
4.7251	0.0251	0.7454	8.7744
4.7301	1.3424	0.4134	9.9134
4.7351	0.5091	0.7005	10.7389
4.7401	1.7091	-0.3236	9.3589
4.7451	0.0341	0.8764	8.8755
4.7501	0.1334	0.6156	9.6777
4.7551	0.6060	0.2154	10.2658
4.7601	1.1438	0.3224	10.2951
4.7651	0.0227	-0.1717	9.0610
4.7701	0.6233	0.3302	9.1184
4.7751	0.8746	-0.2554	10.1060
4.7801	0.0287	1.4315	9.6652
4.7851	1.6343	-0.4839	9.6305
4.7901	0.4726	0.5013	9.4384
4.7951	0.8154	0.4247	9.5150
4.8001	0.8130	0.0251	9.5240
4.8051	0.6796	-0.1771	9.4678
4.8101	0.7029	0.6467	9.9104
4.8151	0.0389	0.3416	10.4207
4.8201	1.4782	-0.6760	9.5814
4.8251	0.7723	0.3697	9.7166
4.8301	0.2764	0.3876	9.5730
4.8351	0.5270	0.3709	9.1692
4.8401	0.9577	0.2991	9.4217
4.8451	0.7155	0.2411	9.4983
4.8501	0.6251	-0.0329	9.0538
4.8551	1.1037	-0.3344	9.0173
4.8601	0.8823	0.5922	9.0077
4.8651	0.9141	0.8285	10.1042
4.8701	0.6490	-0.2650	9.6634
4.8751	0.7442	0.9152	9.9637
4.8801	0.8219	0.1705	9.1746
4.8851	1.4237	-0.2674	9.8225
4.8901	0.6796	0.2656	10.2586
4.8951	1.0546	-0.2231	9.3912
4.9001	0.4540	0.4672	10.2370
4.9051	0.4163	-0.8201	9.5353
4.9101	0.4732	0.6485	9.6221
4.9151	0.1848	0.4929	9.5838
4.9201	0.5234	0.3601	9.3128
4.9251	0.6514	-0.0257	9.4378
4.9301	1.3023	-0.3984	9.9696
4.9351	0.1340	0.4026	9.8350
4.9401	0.4516	0.7585	10.1874
4.9451	0.4319	0.5360	9.7130
4.9501	1.1910	0.5462	10.5212
4.9551	0.4032	0.1884	10.5266
4.9601	-0.0975	0.1143	8.8097
4.9651	0.7202	0.2919	9.5694
4.9701	0.0048	1.3633	10.5696
4.9751	1.0816	0.3164	9.7184
4.9801	-0.0957	-0.7214	9.9708
4.9851	1.3777	-0.2973	9.4899
4.9901	-0.1244	0.9368	8.7517
4.9951	0.1466	0.0802	9.5144
5.0001	1.1288	0.3057	9.0149
5.0051	0.0502	-0.3105	9.7477
5.0101	0.9846	-0.4612	9.9475
5.0151	0.6867	0.1854	9.2907
5.0201	0.4875	0.0867	9.5467
5.0251	0.1370	0.4056	9.3344
5.0301	0.9757	-0.0820	10.0025
5.0351	0.4373	1.1767	10.0115
5.0401	1.5793	-1.7049	9.1537
5.0451	1.2443	0.0084	9.9577
5.0501	0.5378	0.2309	9.4097
5.0551	0.6825	1.0295	10.2119
5.0601	0.7232	-0.5773	10.4285
5.0651	1.1366	0.8782	10.7330
5.0701	0.3990	0.3254	9.9164
5.0751	1.4016	-0.1172	9.3607
5.0801	0.4750	0.7041	10.1706
5.0851	0.7029	-0.2237	10.1228
5.0901	0.2662	0.5270	10.1036
5.0951	0.8285	-0.2925	9.0807
5.1001	0.1902	0.6999	9.4235
5.1051	0.9888	0.0502	9.2877
5.1101	0.5438	0.2734	10.4494
5.1151	0.6736	0.0999	9.0843
5.1201	0.4684	0.2417	9.4642
5.1251	0.8698	-0.2465	9.4372
5.1301	0.2883	0.7083	9.3978
5.1351	1.1013	-0.4630	9.1549
5.1401	0.4851	0.9099	9.3409
5.1451	0.0670	-0.4014	8.3844
5.1501	-0.1759	1.2383	8.7140
5.1551	0.8518	-0.5515	8.8618
5.1601	1.2305	0.0861	10.0618
5.1651	0.6831	0.4169	9.3762
5.1701	0.6425	0.0772	10.0049
5.1751	0.3320	0.2722	10.0450
5.1801	0.3864	-0.2249	9.9559
5.1851	0.7274	0.0156	8.8606
5.1901	1.4889	0.7759	11.4340
5.1951	0.4122	0.2243	10.4703
5.2001	0.5157	-0.3523	8.9976
5.2051	0.4487	0.0293	9.9338
5.2101	0.2650	0.5300	9.5240
5.2151	0.4038	-0.2004	9.4109
5.2201	0.8626	0.3541	8.8163
5.2251	1.1133	1.2586	8.8809
5.2301	0.3936	0.6377	9.7477
5.2351	1.0098	0.4421	9.6490
5.2401	0.7143	0.5252	9.1166
5.2451	0.3625	0.5815	8.9689
5.2501	0.9039	0.2471	8.7918
5.2551	0.6126	0.5677	10.3190
5.2601	1.0666	0.4648	10.2729
5.2651	1.1563	0.3123	8.3342
5.2701	0.4546	-0.0826	8.7206
5.2751	1.3364	-0.2500	9.7752
5.2801	0.0036	0.5581	9.2339
5.2851	0.5336	0.3422	9.6029
5.2901	-0.3159	0.6951	9.5443
5.2951	0.7190	-0.2518	10.4153
5.3001	0.6706	0.9631	10.7431
5.3051	0.5282	0.5761	8.5902
5.3101	0.3188	0.3410	9.3278
5.3151	0.8662	0.4104	9.7160
5.3201	0.6939	-0.0150	10.7473
5.3251	0.6580	0.2267	9.7932
5.3301	0.1735	0.2937	9.1262
5.3351	0.5432	-0.6359	8.1589
5.3401	0.8907	0.4798	8.8211
5.3451	-0.1448	0.6622	9.5419
5.3501	1.1192	-0.1406	8.7996
5.5.3601	0.8973	0.6161	9.7926
5.3651	0.4187	0.9954	9.9655
5.3701	0.9206	-0.4014	9.5545
5.3751	1.2359	0.1615	9.5234
5.3801	1.1156	0.2315	10.5122
5.3851	1.2114	-0.7137	8.8187
5.3901	0.4935	0.1555	9.8835
5.3951	0.6449	-0.1723	10.0594
5.4001	-0.0419	0.9338	9.9798
5.4051	0.8596	-0.3769	8.4215
5.4101	0.5988	0.5743	10.0719
5.4151	1.5816	0.6586	10.1922
5.4201	1.0654	-0.1878	10.0420
5.4251	1.3765	0.7029	11.0434
5.4301	1.0140	-0.0365	11.3018
5.4351	0.2883	0.3218	9.0843
5.4401	1.1324	-0.3535	9.0101
5.4451	0.3864	0.9643	11.3347
5.4501	0.0532	0.0724	9.9828
5.4551	1.3854	0.2387	8.6907
5.4601	0.4205	0.5719	9.4636
5.4651	0.8734	0.9781	9.4115
5.4701	0.6526	0.3069	8.4071
5.4751	0.9834	0.6287	8.7792
5.4801	0.0664	-0.1346	9.3499
5.4851	0.4666	0.2829	9.7016
5.4901	0.8584	0.2638	9.0155
5.4951	0.5043	0.8010	9.7435
5.5001	1.1282	-0.0562	9.7184
5.5051	1.0080	0.6915	11.0871
5.5101	0.4463	0.5934	9.6616
5.5151	1.0451	0.2764	10.2125
5.5201	0.3021	0.1986	10.7347
5.5251	0.6981	-0.0317	10.5912
5.5301	1.2760	0.5061	9.6687
5.5351	0.2847	0.2698	10.0827
5.5401	1.0205	0.5061	10.0983
5.5451	-0.0688	0.3063	10.1671
5.5501	1.0050	-0.2058	9.8853
5.5551	0.5731	0.4014	10.5756
5.5601	0.5539	-0.4816	8.5441
5.5651	0.7196	0.0473	8.5573
5.5701	0.8841	0.1531	9.2715
5.5751	0.0778	-0.0114	8.8265
5.5801	1.0271	0.4433	8.1481
5.5851	0.4827	0.7460	8.3533
5.5901	0.5611	0.8841	10.3752
5.5951	1.0738	0.5737	9.8859
5.6001	0.6490	-0.1717	9.3397
5.6051	0.8088	-0.2405	9.1651
5.6101	0.4457	0.5773	10.3262
5.6151	1.1683	-0.4774	9.2027
5.6201	0.7705	-0.2919	9.8602
5.6251	1.1964	-0.2806	9.7908
5.6301	-0.0975	1.1701	9.9517
5.6351	0.3123	-0.4714	9.1561
5.6401	0.7854	1.3783	9.7848
5.6451	0.8548	0.0939	10.2071
5.6501	1.0289	-0.0688	10.5385
5.6551	0.5605	0.0431	10.5577
5.6601	0.5767	0.4104	10.0923
5.6651	0.7166	0.1304	8.9850
5.6701	0.8315	0.5743	9.9349
5.6751	0.9212	-0.1023	9.9110
5.6801	0.0502	0.3302	9.2853
5.6851	0.6724	0.3147	9.9086
5.6901	0.1352	0.2142	9.5228
5.6951	0.8225	0.4576	9.3858
5.7001	0.8345	-0.1657	8.9754
5.7051	0.1220	1.4716	8.5393
5.7101	-0.1053	-0.3458	8.9587
5.7151	0.7585	-0.0526	9.2303
5.7201	0.8255	0.0317	9.6580
5.7251	0.7753	-0.2201	9.2757
5.7301	0.5312	-0.0012	8.3545
5.7351	1.1820	0.4810	9.4289
5.7401	0.9493	0.2315	9.0125
5.7451	0.0431	0.4080	9.6221
5.7501	0.3739	-0.0616	9.5066
5.7551	0.6449	0.0628	11.2749
5.7601	0.9499	0.6873	9.4767
5.7651	0.2285	0.9123	10.5254
5.7701	1.3184	0.3182	9.6807
5.7751	0.4134	-0.7813	9.4396
5.7801	1.4183	0.0215	10.4111
5.7851	-0.0090	0.2046	9.5282
5.7901	0.7950	-0.2309	9.0867
5.7951	1.2688	0.2160	9.6610
5.8001	0.2985	0.1681	10.1461
5.8051	1.2867	0.2004	9.8105
5.8101	0.4708	0.1220	9.2470
5.8151	1.3807	-0.1597	8.5501
5.8201	0.1836	0.9386	9.9816
5.8251	0.5683	0.2973	9.8368
5.8301	1.1252	0.0401	9.7375
5.8351	0.8417	0.0449	9.9726
5.8401	0.4343	0.2046	9.3996
5.8451	1.4046	-0.0377	9.4450
5.8501	0.4905	0.3069	9.5856
5.8551	1.5523	-0.2130	10.1838
5.8601	-0.1771	1.1025	9.9744
5.8651	0.5737	0.0251	10.1557
5.8701	-0.0873	1.1701	9.5748
5.8751	1.0110	-0.1657	9.8721
5.8801	1.2024	0.0419	9.2769
5.8851	0.7113	0.1286	8.9850
5.8901	0.9314	0.5832	10.3519
5.8951	0.0311	0.9218	9.5455
5.9001	0.9733	0.2339	9.9714
5.9051	-0.0975	0.7011	9.9290
5.9101	0.8040	-0.0981	9.1483
5.9151	0.5348	0.1400	9.2835
5.9201	0.8219	0.1442	9.5736
5.9251	0.3081	1.0552	10.4937
5.9301	0.6245	0.4624	9.4295
5.9351	0.7143	-0.0921	9.9780
5.9401	0.6485	-0.3015	9.4181
5.9451	0.0562	-0.2130	9.5114
5.9501	1.0217	-0.0843	8.8091
5.9551	0.6981	0.3942	8.9025
5.9601	0.8291	0.8800	9.1878
5.9651	0.9272	-0.4923	10.3561
5.9701	0.4169	0.6514	10.1461
5.9751	0.2626	0.2154	9.0622
5.9801	0.0012	0.2734	9.3613
5.9851	1.2640	0.0616	9.4295
5.9901	0.8512	0.4223	9.3996
5.9951	0.7998	0.8303	10.1593
6.0001	1.3675	0.2698	10.1886
6.0051	0.4241	0.1729	10.5655
6.0101	0.8219	-0.6790	9.5802
6.0151	-0.0215	0.7298	10.1407
6.0201	1.2730	-0.8082	8.8504
6.0251	0.2806	0.8554	9.2231
6.0301	1.4070	-0.3302	10.1796
6.0351	0.5809	0.4343	9.0053
6.0401	0.5258	-0.0078	8.7379
6.0451	1.2161	0.8578	7.9352
6.0501	-0.1226	1.0169	8.7457
6.0551	0.2435	0.8913	8.9754
6.0601	0.9117	0.4600	9.1579
6.0651	0.7974	0.8859	10.6408
6.0701	1.2221	0.3954	9.4462
6.0751	0.5354	0.4493	9.4019
6.0801	0.1430	0.2835	9.4522
6.0851	0.2602	0.4594	9.9218
6.0901	0.1053	0.7232	9.5198
6.0951	0.1920	-0.8919	9.9391
6.1001	0.4576	0.2165	9.6341
6.1051	0.9266	0.0497	9.4725
6.1101	0.7083	1.0475	9.5682
6.1151	1.0971	0.1190	9.7256
6.1201	1.0780	0.1298	10.4303
6.1251	0.4074	0.5970	9.9559
6.1301	0.8614	-0.1208	9.7627
6.1351	0.0610	-0.2536	9.3834
6.1401	0.5689	-0.1244	9.5706
6.1451	0.6981	0.9380	9.2362
6.1501	0.4528	0.4606	9.8488
6.1551	0.8883	0.7771	10.1617
6.1601	0.8584	-0.1753	9.8368
6.1651	1.3131	-0.1932	10.4219
6.1701	0.4810	0.3745	10.4883
6.1751	0.7537	-0.7400	8.6452
6.1801	0.4487	0.5336	8.0051
6.1851	1.1282	0.6802	8.8432
6.1901	0.9075	1.2730	8.9156
6.1951	1.1210	-0.7472	9.5204
6.2001	0.3547	0.4804	9.8386
6.2051	0.5767	-0.8668	9.5234
6.2101	0.0778	1.5517	10.1587
6.2151	0.4283	-0.4140	8.9724
6.2201	1.6439	0.2237	9.5946
6.2251	0.8112	0.9272	9.9409
6.2301	1.6768	-0.4750	10.0899
6.2351	0.1615	0.7783	10.3465
6.2401	0.6879	-0.7155	9.8518
6.2451	-0.0150	1.1462	10.1503
6.2501	0.7041	-0.1759	9.7573
6.2551	1.0816	0.3075	9.7519
6.2601	1.2108	-0.0066	9.8703
6.2651	1.0714	0.6251	9.5724
6.2701	0.4421	1.0062	10.1437
6.2751	0.6766	0.4080	10.1324
6.2801	-0.2351	0.4487	8.9102
6.2851	0.9266	-0.3117	9.8165
6.2901	0.2219	0.7077	8.7212
6.2951	1.0666	-0.3380	9.4289
6.3001	1.1551	1.1438	9.5252
6.3051	0.4026	0.6132	8.9587
6.3101	0.6132	0.7298	9.3625
6.3151	0.5456	0.8136	9.7351
6.3201	0.4750	0.1681	9.3481
6.3251	1.0002	-0.0592	10.0899
6.3301	0.3517	-0.2225	9.8721
6.3351	0.9464	-0.5414	10.3986
6.3401	0.6843	0.6215	10.2203
6.3451	1.0098	-0.3458	10.4560
6.3501	0.3111	-0.2477	9.7824
6.3551	1.1115	-0.1525	9.3894
6.3601	0.5892	0.2112	10.2909
6.3651	0.8453	0.6556	9.8841
6.3701	0.5815	0.0329	9.3200
6.3751	0.7418	1.2048	8.3174
6.3801	0.7364	1.2742	8.7427
6.3851	1.0026	0.1161	9.5365
6.3901	1.2311	0.7023	9.1776
6.3951	0.3787	0.0191	9.6963
6.4001	0.0473	1.3555	9.4205
6.4051	0.2632	0.3099	10.0917
6.4101	1.0947	-0.1131	9.5288
6.4151	1.2227	0.1699	10.3334
6.4201	1.0923	-0.9571	9.6376
6.4251	0.2979	0.9559	9.6670
6.4301	1.0534	-0.3182	10.2903
6.4351	-0.0843	0.7406	9.8548
6.4401	0.2692	-0.3488	9.2351
6.4451	0.0987	0.4038	10.6749
6.4501	1.2263	0.3523	9.1489
6.4551	0.9757	0.6431	8.9671
6.4601	0.8734	-0.0162	9.6245
6.4651	0.5306	0.6000	10.9184
6.4701	-0.1872	0.0760	10.2017
6.4751	0.5809	-0.1047	8.9025
6.4801	0.1340	-0.3362	9.3619
6.4851	0.5145	0.5611	9.6628
6.4901	1.0277	-0.0778	9.1537
6.4951	1.2778	0.4630	9.2554
6.5001	0.5868	0.5402	9.5288
6.5051	0.8997	0.1998	8.8749
6.5101	0.1938	0.1699	9.2751
6.5151	1.4183	-0.1107	10.4201
6.5201	0.0891	0.8124	10.1012
6.5251	1.2891	-0.5503	9.6143
6.5301	1.1085	0.2052	10.0157
6.5351	0.3511	-0.2243	10.6426
6.5401	0.7597	0.1304	10.0863
6.5451	0.4600	0.9009	9.4695
6.5501	1.3525	0.0156	10.5332
6.5551	0.2824	0.6532	9.8709
6.5601	1.7121	-1.0056	9.7537
6.5651	0.5737	1.2873	9.0903
6.5701	1.2173	0.7220	9.6245
6.5751	0.3392	0.3685	9.8291
6.5801	0.6096	0.1537	10.0588
6.5851	0.5599	-0.2512	8.9473
6.5901	-0.0485	0.8937	8.4622
6.5951	0.7334	-0.1675	8.1427
6.6001	1.2861	0.8016	9.3535
6.6051	0.7382	0.7244	9.1399
6.6101	1.1515	0.3081	10.3842
6.6151	0.4516	0.3308	8.6147
6.6201	0.1226	0.4044	10.8735
6.6251	0.0945	-0.2728	8.0398
6.6301	0.2213	-0.0395	9.1728
6.6351	1.0516	-0.2847	9.8141
6.6401	0.4169	1.5230	10.0989
6.6451	1.3495	-0.8315	10.3172
6.6501	0.5192	0.1561	9.8470
6.6551	0.4582	-0.0114	9.9649
6.6601	0.7304	-0.0353	9.3254
6.6651	0.3170	1.1719	9.9044
6.6701	0.5916	-0.0802	9.8362
6.6751	0.7573	0.4379	9.2590
6.6801	0.8889	-0.3212	9.4666
6.6851	0.3470	0.0879	9.2943
6.6901	0.6030	0.6197	10.2640
6.6951	1.1306	0.0682	9.4462
6.7001	0.1807	0.4289	9.2979
6.7051	1.3992	0.0921	10.5044
6.7101	0.3589	-0.3679	10.1527
6.7151	1.0146	-0.4786	9.7136
6.7201	0.8871	0.5922	10.1078
6.7251	0.5964	-0.0191	9.0735
6.7301	1.1121	-0.2411	10.0582
6.7351	0.4546	0.9763	10.3764
6.7401	1.4094	-0.5456	10.1742
6.7451	0.0951	0.6987	9.8769
6.7501	1.5188	0.6299	9.4899
6.7551	0.2399	1.0283	9.1513
6.7601	0.7232	0.5348	9.6598
6.7651	0.6957	0.2255	10.1629
6.7701	0.4493	0.6658	11.0207
6.7751	0.3266	-0.1077	9.4666
6.7801	0.7071	0.5749	9.2638
6.7851	0.3751	0.2841	9.0813
6.7901	1.1408	0.4702	9.4498
6.7951	0.8662	0.8291	9.7328
6.8001	0.2800	-0.2070	9.3786
6.8051	1.0935	0.2423	9.2715
6.8101	0.0156	1.0193	9.1537
6.8151	0.4026	-0.6628	10.3238
6.8201	0.2626	0.2022	9.1752
6.8251	1.4704	-0.1579	10.2933
6.8301	0.3811	0.5647	9.3278
6.8351	0.6311	0.8536	9.1830
6.8401	0.9147	-0.7549	9.4947
6.8451	0.8877	0.3428	9.3912
6.8501	0.1597	-0.3918	9.6442
6.8551	-0.4510	0.8207	9.7746
6.8601	0.6425	0.1226	9.0454
6.8651	0.6191	0.7208	9.5772
6.8701	0.8889	0.4546	9.1938
6.8751	0.8788	-0.5755	10.3453
6.8801	0.7723	0.8249	9.6963
6.8851	0.5342	-0.3739	9.7962
6.8901	0.4558	-0.1651	8.1924
6.8951	1.0935	0.7166	10.3028
6.9001	1.0504	-0.1669	9.0616
6.9051	0.8554	-0.1819	9.3894
6.9101	1.1898	0.5192	9.2177
6.9151	0.3547	0.1651	9.2201
6.9201	0.8297	0.1017	9.5030
6.9251	0.7890	0.2590	9.9960
6.9301	1.3795	0.0018	9.3589
6.9351	0.9595	0.2357	9.7513
6.9401	0.7047	0.3278	9.4971
6.9451	0.9799	0.7160	8.2827
6.9501	1.0241	0.1454	9.3385
6.9551	1.1988	0.3505	9.2542
6.9601	0.8363	0.1280	10.1934
6.9651	0.2913	0.7549	10.3286
6.9701	0.8548	0.3117	10.1509
6.9751	0.0239	-0.2674	9.1687
6.9801	1.9125	0.1023	9.2255
6.9851	1.3334	0.6413	10.5050
6.9901	0.0616	0.7053	10.5475
6.9951	0.5809	-0.4702	10.9298
7.0001	-0.1603	0.9972	9.1890
7.0051	0.5318	-0.1226	9.9702
7.0101	0.4804	0.3673	9.6741
7.0151	1.0385	0.0718	9.4899
7.0201	0.2758	1.0074	9.1387
7.0251	0.3673	0.7615	10.5098
7.0301	0.7394	0.8524	10.2658
7.0351	0.7824	0.0778	9.5599
7.0401	0.0114	0.1059	9.6179
7.0451	0.0233	0.6652	9.9200
7.0501	0.0419	0.3930	8.9904
7.0551	1.6319	-0.9505	8.8355
7.0601	0.7848	0.1059	9.2440
7.0651	0.9595	0.9470	9.3164
7.0701	-0.4122	-0.3356	9.0472
7.0751	1.1318	-0.4247	9.2566
7.0801	0.6090	-0.1358	9.3158
7.0851	0.4510	0.1681	10.0917
7.0901	1.3059	-0.4905	9.5078
7.0951	0.6742	0.9117	9.5778
7.1001	0.9242	0.0604	9.0598
7.1051	0.7681	0.0000	9.5282
7.1101	0.6957	0.1555	8.8666
7.1151	0.7436	-0.0574	9.7842
7.1201	-0.3224	0.5803	8.8163
7.1251	0.8201	0.7274	9.2249
7.1301	0.6688	0.0784	9.5796
7.1351	0.5533	0.6419	9.9804
7.1401	1.2808	0.5474	9.4947
7.1451	0.0455	0.4768	9.5425
7.1501	1.4357	-0.1388	10.8370
7.1551	0.6455	0.1065	11.4508
7.1601	0.8901	0.9505	10.4793
7.1651	0.5486	0.1603	9.9361
7.1701	0.7430	0.9446	10.2664
7.1751	1.3495	-0.1053	8.9180
7.1801	0.6215	0.6568	9.7399
7.1851	0.1854	-0.3254	9.3984
7.1901	-0.1819	1.5601	9.8757
7.1951	1.6157	0.0497	9.1531
7.2001	0.6778	1.0361	8.4448
7.2051	0.3176	0.4217	10.5762
7.2101	-0.0664	0.1998	9.1100
7.2151	2.1517	0.1501	8.9635
7.2201	0.3972	1.6337	9.3122
7.2251	1.0199	-0.3129	10.2789
7.2301	0.4068	0.1872	9.6879
7.2351	1.4261	-0.0730	8.9102
7.2401	-0.4636	1.3986	9.7100
7.2451	1.1671	0.0796	9.6939
7.2501	0.7029	-0.3613	9.4881
7.2551	0.6796	-0.0395	10.9645
7.2601	0.4044	0.0867	11.1140
7.2651	0.4187	0.5366	10.7611
7.2701	0.9589	-1.0498	9.6945
7.2751	0.4421	0.5151	9.4719
7.2801	1.6229	0.1316	10.2939
7.2851	0.4744	0.3009	8.7266
7.2901	0.8596	0.0185	8.8881
7.2951	0.5844	0.9398	9.3158
7.3001	0.8560	-0.4726	8.8474
7.3051	-0.0024	0.2345	9.7968
7.3101	0.8877	0.4146	9.3714
7.3151	0.5916	0.4223	8.7475
7.3201	1.3190	-0.1759	9.4091
7.3251	1.2191	0.3864	9.8027
7.3301	1.7384	0.4971	8.9300
7.3351	-0.1741	0.2165	8.9042
7.3401	1.8909	0.0784	8.3383
7.3451	0.2794	0.1501	10.6570
7.3501	0.6700	0.5982	10.0540
7.3551	0.5671	0.2764	8.9970
7.3601	-0.0951	1.4614	10.3704
7.3651	1.1545	0.0592	10.4392
7.3701	0.8393	0.6311	9.7722
7.3751	1.5643	-0.7155	9.4839
7.3801	0.0520	1.2664	10.1922
7.3851	0.9039	0.1830	10.3148
7.3901	0.4917	0.3601	9.4229
7.3951	1.2903	0.0939	10.6013
7.4001	0.3302	1.1360	10.3525
7.4051	0.9888	0.5372	10.3136
7.4101	0.2489	0.5569	9.1860
7.4151	0.7448	0.5850	9.8153
7.4201	0.3649	0.1992	9.4989
7.4251	0.8465	0.3326	9.2769
7.4301	0.3093	-0.1759	9.5808
7.4351	0.4618	1.0738	9.4672
7.4401	1.2359	-0.9206	9.5007
7.4451	0.6682	0.0018	9.7710
7.4501	0.4038	0.2614	9.8010
7.4551	-0.1998	0.5157	9.9206
7.4601	1.4997	-0.2106	9.0855
7.4651	0.6772	0.3757	9.8470
7.4701	0.9039	0.0233	9.7465
7.4751	0.4845	-0.1747	9.0969
7.4801	0.8572	0.4050	9.4031
7.4851	1.1210	0.1639	9.9583
7.4901	0.8189	1.0756	9.7070
7.4951	1.0708	-0.5288	10.2909
7.5001	0.7621	0.0018	10.0319
7.5051	0.0479	0.3093	10.1036
7.5101	1.3663	-0.3541	8.9814
7.5151	0.6903	0.3422	9.4929
7.5201	0.9129	0.2812	9.3930
7.5251	-0.0150	0.9314	10.5517
7.5301	-0.0909	0.8154	9.8069
7.5351	1.3310	0.0574	10.3962
7.5401	0.1741	0.5001	10.5409
7.5451	1.2933	0.0413	8.9539
7.5501	0.3553	0.8895	9.6508
7.5551	0.8698	-0.0084	9.3625
7.5601	0.3858	0.9164	9.6155
7.5651	0.5180	0.0742	8.7170
7.5701	0.1513	-0.1466	8.8187
7.5751	0.7460	0.4606	9.5994
7.5801	0.4648	0.8297	9.6041
7.5851	0.8459	0.1669	9.2075
7.5901	0.1950	0.5970	10.2436
7.5951	0.7208	-0.2632	9.6167
7.6001	1.0151	0.6700	9.1980
7.6051	0.3547	0.0036	8.7631
7.6101	1.0026	0.2877	10.3704
7.6151	0.4534	0.1735	10.9196
7.6201	1.2700	-0.8106	9.6388
7.6251	0.3553	1.0367	10.2592
7.6301	0.8177	0.0425	9.5599
7.6351	0.4570	0.4983	10.3381
7.6401	1.1007	-0.2674	10.5266
7.6451	0.1166	0.4014	9.4420
7.6501	1.0104	-0.0245	8.9712
7.6551	0.6873	0.2740	8.5746
7.6601	0.9643	0.3200	9.6867
