time	accelx	accely	accelz
0.0000	0.6855	0.2596	9.6586
0.0050	0.6736	0.2459	9.6382
0.0100	0.6712	0.2560	9.6089
0.0150	0.6706	0.2644	9.6305
0.0200	0.6766	0.2614	9.6173
0.0250	0.6975	0.2471	9.6586
0.0300	0.6652	0.2375	9.5994
0.0350	0.6975	0.2309	9.6562
0.0400	0.6814	0.2524	9.6293
0.0450	0.6831	0.2614	9.6382
0.0500	0.6921	0.2560	9.6568
0.0550	0.6778	0.2650	9.6670
0.0600	0.6401	0.2447	9.5796
0.0650	0.6915	0.2363	9.6149
0.0700	0.6652	0.2435	9.6161
0.0750	0.6718	0.2530	9.6245
0.0800	0.6724	0.2357	9.6681
0.0850	0.6748	0.2471	9.6209
0.0900	0.6778	0.2339	9.6681
0.0950	0.6688	0.2596	9.5988
0.1000	0.6449	0.2542	9.6317
0.1050	0.6933	0.2554	9.6203
0.1100	0.7065	0.2548	9.6550
0.1150	0.6772	0.2740	9.5898
0.1200	0.6939	0.2399	9.6275
0.1250	0.6622	0.2584	9.6107
0.1300	0.6658	0.2572	9.5970
0.1350	0.6754	0.2500	9.6311
0.1400	0.6891	0.2548	9.6029
0.1450	0.6502	0.2524	9.6400
0.1500	0.6963	0.2650	9.6885
0.1550	0.6598	0.2518	9.5994
0.1600	0.6730	0.2614	9.6346
0.1650	0.6646	0.2518	9.6670
0.1700	0.7023	0.2447	9.6047
0.1750	0.6700	0.2441	9.6681
0.1800	0.6945	0.2518	9.6424
0.1850	0.6646	0.2465	9.6263
0.1900	0.6742	0.2177	9.6610
0.1950	0.6736	0.2393	9.6370
0.2000	0.7149	0.2435	9.6131
0.2050	0.6670	0.2572	9.6376
0.2100	0.6933	0.2387	9.6436
0.2150	0.6706	0.2453	9.6125
0.2200	0.6748	0.2459	9.6406
0.2250	0.6616	0.2560	9.5671
0.2300	0.6820	0.2285	9.6382
0.2350	0.6837	0.2536	9.6191
0.2400	0.6718	0.2542	9.6376
0.2450	0.6879	0.2698	9.6388
0.2500	0.6999	0.2536	9.6646
0.2550	0.6909	0.2542	9.6646
0.2600	0.6556	0.2387	9.6293
0.2650	0.7059	0.2560	9.6484
0.2700	0.6568	0.2560	9.6101
0.2750	0.6502	0.2369	9.6400
0.2800	0.6676	0.2381	9.6185
0.2850	0.6742	0.2447	9.6305
0.2900	0.6927	0.2375	9.6723
0.2950	0.6610	0.2417	9.6107
0.3000	0.6867	0.2291	9.6215
0.3050	0.6903	0.2638	9.6269
0.3100	0.6939	0.2524	9.6329
0.3150	0.7172	0.2471	9.6191
0.3200	0.6802	0.2160	9.6867
0.3250	0.6664	0.2518	9.6149
0.3300	0.6712	0.2518	9.6113
0.3350	0.6676	0.2345	9.6436
0.3400	0.6634	0.2465	9.6101
0.3450	0.6742	0.2477	9.6209
0.3500	0.6610	0.2459	9.6101
0.3550	0.6502	0.2530	9.6598
0.3600	0.6873	0.2590	9.6251
0.3650	0.6903	0.2465	9.6161
0.3700	0.6700	0.2560	9.6167
0.3750	0.6730	0.2477	9.6317
0.3800	0.6969	0.2626	9.5952
0.3850	0.6837	0.2518	9.4983
0.3900	0.6814	0.2530	9.6209
0.3950	0.6700	0.2351	9.6029
0.4000	0.6634	0.2626	9.6430
0.4050	0.6377	0.2554	9.6514
0.4100	0.6766	0.2369	9.6610
0.4150	0.6712	0.2471	9.6370
0.4200	0.6849	0.2584	9.6257
0.4250	0.6664	0.2716	9.6239
0.4300	0.7023	0.2590	9.6693
0.4350	0.6873	0.2387	9.6167
0.4400	0.6670	0.2596	9.6562
0.4450	0.6467	0.2674	9.6364
0.4500	0.6963	0.2566	9.6071
0.4550	0.6706	0.2417	9.6167
0.4600	0.7017	0.2393	9.6424
0.4650	0.6796	0.2512	9.6329
0.4700	0.6526	0.2620	9.6197
0.4750	0.6831	0.2483	9.7902
0.4800	0.7071	0.2512	9.6538
0.4850	0.6814	0.2345	9.6568
0.4900	0.7041	0.2495	9.6329
0.4950	0.6544	0.2423	9.6059
0.5000	0.6766	0.2524	9.6143
0.5050	0.6694	0.2560	9.6382
0.5100	0.6712	0.2381	9.6562
0.5150	0.6658	0.2728	9.6412
0.5200	0.6598	0.2680	9.5958
0.5250	0.6682	0.2554	9.6281
0.5300	0.6921	0.2626	9.6454
0.5350	0.6742	0.2483	9.6239
0.5400	0.6688	0.2542	9.6281
0.5450	0.6622	0.2542	9.6263
0.5500	0.6831	0.2530	9.6227
0.5550	0.6742	0.2459	9.6442
0.5600	0.6843	0.2572	9.6610
0.5650	0.6933	0.2405	9.6221
0.5700	0.6700	0.2704	9.6424
0.5750	0.6808	0.2393	9.6687
0.5800	0.6652	0.2722	9.6538
0.5850	0.6496	0.2339	9.6472
0.5900	0.6891	0.2399	9.6484
0.5950	0.6963	0.2489	9.6089
0.6000	0.6772	0.2626	9.6616
0.6050	0.6987	0.2315	9.6125
0.6100	0.7131	0.2495	9.6215
0.6150	0.6766	0.2536	9.6472
0.6200	0.6909	0.2441	9.6095
0.6250	0.6736	0.2506	9.6023
0.6300	0.6879	0.2435	9.6640
0.6350	0.7029	0.2393	9.6364
0.6400	0.6754	0.2405	9.6562
0.6450	0.6694	0.2345	9.6544
0.6500	0.6939	0.2261	9.6239
0.6550	0.6885	0.2453	9.7872
0.6600	0.6915	0.2524	9.6586
0.6650	0.6820	0.2584	9.6490
0.6700	0.6843	0.2626	9.6687
0.6750	0.6808	0.2465	9.6059
0.6800	0.6592	0.2405	9.7752
0.6850	0.6646	0.2698	9.6287
0.6900	0.6616	0.2285	9.6341
0.6950	0.6790	0.2429	9.6221
0.7000	0.6825	0.2662	9.6568
0.7050	0.6843	0.2728	9.6508
0.7100	0.6897	0.2429	9.6179
0.7150	0.6688	0.2602	9.6538
0.7200	0.6820	0.2530	9.6125
0.7250	0.7011	0.2459	9.6412
0.7300	0.6754	0.2752	9.6191
0.7350	0.6688	0.2512	9.6424
0.7400	0.6796	0.2393	9.6335
0.7450	0.6939	0.2369	9.6281
0.7500	0.6927	0.2512	9.6149
0.7550	0.6784	0.2626	9.6400
0.7600	0.6712	0.2297	9.6221
0.7650	0.6431	0.2381	9.6323
0.7700	0.6706	0.2423	9.7992
0.7750	0.6825	0.2530	9.6807
0.7800	0.6694	0.2351	9.6203
0.7850	0.6873	0.2602	9.6251
0.7900	0.6538	0.2524	9.6323
0.7950	0.6891	0.2453	9.6101
0.8000	0.6891	0.2285	9.6406
0.8050	0.6945	0.2530	9.6035
0.8100	0.7077	0.2560	9.6233
0.8150	0.7083	0.2453	9.6903
0.8200	0.6808	0.2417	9.6317
0.8250	0.6820	0.2453	9.6263
0.8300	0.6712	0.2758	9.6634
0.8350	0.6706	0.2590	9.6388
0.8400	0.7041	0.2417	9.6017
0.8450	0.6855	0.2524	9.6610
0.8500	0.6610	0.2429	9.6293
0.8550	0.6820	0.2895	9.6514
0.8600	0.7125	0.2453	9.6364
0.8650	0.6921	0.2411	9.6263
0.8700	0.7137	0.2710	9.6580
0.8750	0.7083	0.2554	9.6323
0.8800	0.6772	0.2429	9.6275
0.8850	0.6461	0.2459	9.6640
0.8900	0.6742	0.2495	9.6149
0.8950	0.6742	0.2465	9.5946
0.9000	0.6909	0.2512	9.6484
0.9050	0.6891	0.2674	9.6161
0.9100	0.6514	0.2363	9.6550
0.9150	0.6634	0.2369	9.6035
0.9200	0.6891	0.2536	9.6185
0.9250	0.6945	0.2303	9.6209
0.9300	0.6652	0.2596	9.6394
0.9350	0.6825	0.2578	9.6221
0.9400	0.6568	0.2614	9.6341
0.9450	0.6622	0.2417	9.6257
0.9500	0.6676	0.2405	9.7932
0.9550	0.6760	0.2548	9.6598
0.9600	0.6766	0.2506	9.6287
0.9650	0.6796	0.2345	9.6436
0.9700	0.6514	0.2315	9.6346
0.9750	0.7011	0.2722	9.6412
0.9800	0.6825	0.2483	9.6550
0.9850	0.6664	0.2596	9.6729
0.9900	0.6837	0.2506	9.6382
0.9950	0.6532	0.2518	9.5934
1.0000	0.6957	0.2471	9.6442
1.0050	0.6562	0.2459	9.6532
1.0100	0.6778	0.2668	9.6442
1.0150	0.7053	0.2644	9.6299
1.0200	0.6407	0.2728	9.5910
1.0250	0.6814	0.2471	9.6681
1.0300	0.6748	0.2500	9.6047
1.0350	0.6909	0.2536	9.6903
1.0400	0.6873	0.2477	9.6173
1.0450	0.6855	0.2297	9.6209
1.0500	0.6885	0.2656	9.6305
1.0550	0.6682	0.2536	9.6305
1.0600	0.6760	0.2656	9.6352
1.0650	0.6849	0.2584	9.6221
1.0700	0.6927	0.2524	9.6640
1.0750	0.6694	0.2483	9.6514
1.0800	0.6359	0.2435	9.6544
1.0850	0.7238	0.2351	9.6855
1.0900	0.6784	0.2518	9.6149
1.0950	0.6634	0.2632	9.6795
1.1000	0.6891	0.2321	9.6167
1.1050	0.6772	0.2411	9.6293
1.1100	0.6808	0.2542	9.6759
1.1150	0.6814	0.2483	9.6089
1.1200	0.6814	0.2662	9.6568
1.1250	0.6861	0.2578	9.6628
1.1300	0.6658	0.2602	9.6460
1.1350	0.6676	0.2357	9.6000
1.1400	0.6778	0.2387	9.6610
1.1450	0.6622	0.2483	9.6520
1.1500	0.6796	0.2435	9.5964
1.1550	0.6778	0.2656	9.6203
1.1600	0.7011	0.2489	9.6071
1.1650	0.6652	0.2554	9.6000
1.1700	0.6694	0.2471	9.6412
1.1750	0.6772	0.2674	9.5808
1.1800	0.6688	0.2441	9.6352
1.1850	0.6748	0.2530	9.6490
1.1900	0.6682	0.2483	9.6299
1.1950	0.6682	0.2638	9.6239
1.2000	0.6490	0.2596	9.6155
1.2050	0.6831	0.2327	9.6275
1.2100	0.6598	0.2375	9.6203
1.2150	0.6682	0.2542	9.6233
1.2200	0.6736	0.2506	9.6430
1.2250	0.6401	0.2560	9.5808
1.2300	0.6640	0.2536	9.6586
1.2350	0.6867	0.2524	9.6113
1.2400	0.6951	0.2518	9.6293
1.2450	0.6802	0.2441	9.6508
1.2500	0.6766	0.2435	9.5922
1.2550	0.6634	0.2578	9.5946
1.2600	0.6736	0.2566	9.6406
1.2650	0.6855	0.2644	9.6167
1.2700	0.6802	0.2560	9.6089
1.2750	0.6766	0.2518	9.6502
1.2800	0.6808	0.2584	9.6113
1.2850	0.6825	0.2512	9.6113
1.2900	0.6431	0.2435	9.6430
1.2950	0.6849	0.2590	9.6472
1.3000	0.6694	0.2662	9.6305
1.3050	0.6975	0.2644	9.6077
1.3100	0.6634	0.2662	9.6287
1.3150	0.6987	0.2375	9.6502
1.3200	0.6849	0.2506	9.6370
1.3250	0.7065	0.2668	9.6203
1.3300	0.6945	0.2345	9.6317
1.3350	0.6598	0.2518	9.6394
1.3400	0.6879	0.2626	9.6975
1.3450	0.6646	0.2500	9.6197
1.3500	0.7208	0.2740	9.6215
1.3550	0.6784	0.2548	9.6209
1.3600	0.6867	0.2506	9.6185
1.3650	0.6431	0.2740	9.6269
1.3700	0.6831	0.2411	9.6394
1.3750	0.6939	0.2548	9.6484
1.3800	0.6855	0.2554	9.6257
1.3850	0.6778	0.2644	9.6203
1.3900	0.6969	0.2602	9.6897
1.3950	0.6766	0.2291	9.6406
1.4000	0.6628	0.2489	9.6484
1.4050	0.6652	0.2656	9.6622
1.4100	0.6760	0.2584	9.6364
1.4150	0.6485	0.2387	9.6388
1.4200	0.6784	0.2483	9.6029
1.4250	0.6772	0.2477	9.6269
1.4300	0.6718	0.2578	9.6101
1.4350	0.6724	0.2267	9.6909
1.4400	0.6724	0.2381	9.6281
1.4450	0.6754	0.2602	9.7076
1.4500	0.6945	0.2291	9.6257
1.4550	0.6861	0.2746	9.5730
1.4600	0.6736	0.2584	9.6275
1.4650	0.6706	0.2447	9.6233
1.4700	0.6748	0.2566	9.6143
1.4750	0.6538	0.2692	9.5994
1.4800	0.6778	0.2518	9.6245
1.4850	0.6766	0.2441	9.6490
1.4900	0.6730	0.2357	9.6119
1.4950	0.7340	0.2566	9.6987
1.5000	0.6825	0.2489	9.5844
1.5050	0.6843	0.2495	9.6580
1.5100	0.6837	0.2620	9.5928
1.5150	0.6855	0.2680	9.6287
1.5200	0.6634	0.2686	9.6406
1.5250	0.6981	0.2530	9.6556
1.5300	0.6873	0.2495	9.6269
1.5350	0.6748	0.2626	9.6364
1.5400	0.6784	0.2536	9.6173
1.5450	0.6646	0.2387	9.6113
1.5500	0.6772	0.2548	9.6538
1.5550	0.6694	0.2554	9.6532
1.5600	0.6718	0.2512	9.6269
1.5650	0.6646	0.2489	9.7812
1.5700	0.6831	0.2489	9.6281
1.5750	0.7023	0.2518	9.6095
1.5800	0.6814	0.2465	9.6269
1.5850	0.7065	0.2560	9.6388
1.5900	0.6706	0.2297	9.5898
1.5950	0.6784	0.2560	9.6735
1.6000	0.6969	0.2465	9.6053
1.6050	0.6784	0.2435	9.6335
1.6100	0.6766	0.2435	9.6568
1.6150	0.6778	0.2471	9.6598
1.6200	0.6814	0.2548	9.6562
1.6250	0.6849	0.2351	9.6430
1.6300	0.6562	0.2399	9.6538
1.6350	0.6724	0.2668	9.6562
1.6400	0.6682	0.2429	9.6317
1.6450	0.6873	0.2297	9.6245
1.6500	0.6676	0.2399	9.6376
1.6550	0.6927	0.2441	9.6412
1.6600	0.6879	0.2387	9.6430
1.6650	0.7011	0.2381	9.6496
1.6700	0.6772	0.2602	9.6478
1.6750	0.6724	0.2578	9.6550
1.6800	0.6814	0.2668	9.6113
1.6850	0.6520	0.2656	9.6209
1.6900	0.6820	0.2566	9.6107
1.6950	0.6682	0.2728	9.6789
1.7000	0.7065	0.2674	9.6819
1.7050	0.6772	0.2405	9.6335
1.7100	0.7005	0.2207	9.6520
1.7150	0.6658	0.2650	9.6209
1.7200	0.6939	0.2417	9.6179
1.7250	0.6772	0.2447	9.7154
1.7300	0.6628	0.2542	9.6693
1.7350	0.6766	0.2518	9.6454
1.7400	0.6784	0.2333	9.6598
1.7450	0.6951	0.2506	9.6592
1.7500	0.6730	0.2441	9.6502
1.7550	0.6616	0.2530	9.6430
1.7600	0.6891	0.2638	9.6592
1.7650	0.6861	0.2554	9.6071
1.7700	0.6628	0.2512	9.6460
1.7750	0.6479	0.2453	9.6358
1.7800	0.6652	0.2471	9.6119
1.7850	0.6945	0.2339	9.6269
1.7900	0.6754	0.2596	9.5862
1.7950	0.7011	0.2459	9.7956
1.8000	0.6778	0.2656	9.6520
1.8050	0.6706	0.2339	9.6382
1.8100	0.6754	0.2489	9.6095
1.8150	0.6359	0.2764	9.6418
1.8200	0.6945	0.2644	9.6382
1.8250	0.6867	0.2512	9.6299
1.8300	0.6718	0.2489	9.6711
1.8350	0.7011	0.2530	9.6221
1.8400	0.6628	0.2471	9.5533
1.8450	0.6778	0.2327	9.6119
1.8500	0.6604	0.2506	9.6352
1.8550	0.6449	0.2524	9.6047
1.8600	0.6825	0.2626	9.6251
1.8650	0.6688	0.2835	9.5635
1.8700	0.6909	0.2584	9.6125
1.8750	0.6873	0.2740	9.6137
1.8800	0.6556	0.2363	9.6221
1.8850	0.6682	0.2201	9.7734
1.8900	0.6885	0.2471	9.6610
1.8950	0.6664	0.2602	9.6053
1.9000	0.6688	0.2704	9.6436
1.9050	0.6724	0.2560	9.6095
1.9100	0.6718	0.2500	9.6508
1.9150	0.7011	0.2746	9.6335
1.9200	0.6670	0.2782	9.6185
1.9250	0.6682	0.2459	9.6705
1.9300	0.6592	0.2399	9.5904
1.9350	0.6640	0.2327	9.6221
1.9400	0.6772	0.2536	9.6424
1.9450	0.6796	0.2375	9.6586
1.9500	0.6909	0.2548	9.6251
1.9550	0.6688	0.2584	9.6143
1.9600	0.6736	0.2584	9.6239
1.9650	0.6718	0.2638	9.6478
1.9700	0.7208	0.2608	9.6029
1.9750	0.6796	0.2297	9.6287
1.9800	0.6909	0.2512	9.6245
1.9850	0.6754	0.2644	9.6167
1.9900	0.6688	0.2608	9.6412
1.9950	0.7089	0.2512	9.6370
2.0000	0.6825	0.2584	9.6454
2.0050	0.6724	0.2315	9.6502
2.0100	0.6814	0.2381	9.6311
2.0150	0.6825	0.2399	9.6562
2.0200	0.6718	0.2435	9.6251
2.0250	0.6790	0.2560	9.6323
2.0300	0.6975	0.2411	9.6586
2.0350	0.6915	0.2608	9.6352
2.0400	0.6772	0.2381	9.6412
2.0450	0.6748	0.2369	9.6173
2.0500	0.6802	0.2524	9.6311
2.0550	0.7041	0.2662	9.6490
2.0600	0.6574	0.2674	9.6275
2.0650	0.6820	0.2638	9.6346
2.0700	0.6772	0.2572	9.6388
2.0750	0.6909	0.2351	9.6185
2.0800	0.6712	0.2399	9.6484
2.0850	0.6867	0.2620	9.5784
2.0900	0.6730	0.2381	9.8004
2.0950	0.6808	0.2512	9.6233
2.1000	0.6706	0.2483	9.6239
2.1050	0.6825	0.2632	9.6406
2.1100	0.7137	0.2369	9.6550
2.1150	0.6556	0.2524	9.6556
2.1200	0.6736	0.2578	9.6161
2.1250	0.6520	0.2584	9.6741
2.1300	0.6814	0.2447	9.6616
2.1350	0.6604	0.2405	9.6580
2.1400	0.6873	0.2405	9.6305
2.1450	0.6808	0.2554	9.6197
2.1500	0.6646	0.2512	9.6538
2.1550	0.6915	0.2620	9.6167
2.1600	0.6736	0.2548	9.6574
2.1650	0.6760	0.2662	9.6358
2.1700	0.6616	0.2602	9.6071
2.1750	0.6425	0.2483	9.6358
2.1800	0.6748	0.2542	9.7752
2.1850	0.6772	0.2638	9.6329
2.1900	0.6670	0.2602	9.6095
2.1950	0.6682	0.2387	9.6071
2.2000	0.7065	0.2429	9.6364
2.2050	0.6796	0.2483	9.6191
2.2100	0.6754	0.2578	9.6197
2.2150	0.6885	0.2632	9.5868
2.2200	0.6927	0.2500	9.6167
2.2250	0.6867	0.2417	9.6873
2.2300	0.6718	0.2471	9.5587
2.2350	0.6700	0.2758	9.6317
2.2400	0.6616	0.2638	9.6544
2.2450	0.6664	0.2871	9.6496
2.2500	0.6730	0.2626	9.6125
2.2550	0.6784	0.2423	9.6723
2.2600	0.6975	0.2477	9.6412
2.2650	0.6562	0.2500	9.5820
2.2700	0.6514	0.2614	9.6137
2.2750	0.6808	0.2590	9.6406
2.2800	0.6628	0.2710	9.6436
2.2850	0.6802	0.2853	9.6287
2.2900	0.6891	0.2327	9.6670
2.2950	0.6754	0.2572	9.6532
2.3000	0.6568	0.2512	9.6083
2.3050	0.6825	0.2483	9.6053
2.3100	0.6939	0.2393	9.6496
2.3150	0.6981	0.2465	9.6394
2.3200	0.6843	0.2477	9.6502
2.3250	0.6772	0.2536	9.6466
2.3300	0.6843	0.2500	9.6239
2.3350	0.6724	0.2447	9.6472
2.3400	0.6975	0.2560	9.6574
2.3450	0.6820	0.2776	9.6107
2.3500	0.6574	0.2471	9.6436
2.3550	0.6598	0.2512	9.6293
2.3600	0.6831	0.2489	9.6071
2.3650	0.6556	0.2524	9.6508
2.3700	0.6742	0.2447	9.6203
2.3750	0.6957	0.2399	9.6442
2.3800	0.6682	0.2560	9.6311
2.3850	0.6700	0.2339	9.6329
2.3900	0.6951	0.2405	9.6113
2.3950	0.6760	0.2345	9.6580
2.4000	0.7059	0.2632	9.6514
2.4050	0.6837	0.2495	9.6203
2.4100	0.6784	0.2411	9.6251
2.4150	0.7107	0.2686	9.6406
2.4200	0.6825	0.2495	9.6101
2.4250	0.6975	0.2560	9.6424
2.4300	0.6724	0.2441	9.5946
2.4350	0.6640	0.2542	9.6281
2.4400	0.6742	0.2596	9.6358
2.4450	0.6820	0.2453	9.6269
2.4500	0.6993	0.2357	9.6346
2.4550	0.6652	0.2800	9.5700
2.4600	0.6676	0.2530	9.6520
2.4650	0.6598	0.2644	9.6376
2.4700	0.6814	0.2177	9.6454
2.4750	0.6754	0.2465	9.6448
2.4800	0.6520	0.2154	9.6382
2.4850	0.6718	0.2566	9.6454
2.4900	0.6921	0.2554	9.5958
2.4950	0.6885	0.2291	9.6352
2.5000	0.6730	0.2578	9.6568
2.5050	0.6808	0.2608	9.6346
2.5100	0.6736	0.2309	9.6299
2.5150	0.6694	0.2387	9.6263
2.5200	0.6766	0.2447	9.6951
2.5250	0.6568	0.2518	9.6550
2.5300	0.6897	0.2453	9.6233
2.5350	0.6736	0.2590	9.6670
2.5400	0.6538	0.2668	9.6388
2.5450	0.6598	0.2740	9.6161
2.5500	0.6610	0.2656	9.6418
2.5550	0.6820	0.2375	9.6747
2.5600	0.6317	0.2524	9.6017
2.5650	0.6712	0.2632	9.6155
2.5700	0.6861	0.2411	9.6101
2.5750	0.6873	0.2674	9.6041
2.5800	0.6688	0.2441	9.6358
2.5850	0.6837	0.2435	9.5677
2.5900	0.6664	0.2417	9.6047
2.5950	0.6622	0.2722	9.6376
2.6000	0.6676	0.2608	9.6131
2.6050	0.6855	0.2429	9.6209
2.6100	0.6389	0.2698	9.6083
2.6150	0.7065	0.2584	9.6454
2.6200	0.6831	0.2518	9.6257
2.6250	0.6652	0.2560	9.6586
2.6300	0.6796	0.2746	9.6329
2.6350	0.7190	0.2423	9.6382
2.6400	0.6616	0.2500	9.6173
2.6450	0.6736	0.2566	9.6364
2.6500	0.6933	0.2518	9.6717
2.6550	0.6897	0.2411	9.6041
2.6600	0.6867	0.2393	9.6460
2.6650	0.6897	0.2387	9.6317
2.6700	0.6616	0.2740	9.6000
2.6750	0.6724	0.2387	9.6394
2.6800	0.6820	0.2578	9.6269
2.6850	0.6718	0.2608	9.6263
2.6900	0.6814	0.2411	9.6113
2.6950	0.6897	0.2489	9.6275
2.7000	0.6598	0.2596	9.6376
2.7050	0.6712	0.2518	9.6472
2.7100	0.6622	0.2477	9.6305
2.7150	0.6963	0.2429	9.6323
2.7200	0.6855	0.2471	9.6358
2.7250	0.6796	0.2632	9.5820
2.7300	0.6544	0.2417	9.6628
2.7350	0.6706	0.2483	9.6293
2.7400	0.6963	0.2261	9.6299
2.7450	0.6831	0.2560	9.4977
2.7500	0.6831	0.2512	9.5928
2.7550	0.6610	0.2578	9.6137
2.7600	0.6688	0.2512	9.6490
2.7650	0.6814	0.2411	9.6388
2.7700	0.6754	0.2506	9.6245
2.7750	0.6963	0.2608	9.6610
2.7800	0.6622	0.2471	9.6628
2.7850	0.6592	0.2560	9.6227
2.7900	0.7095	0.2650	9.6789
2.7950	0.6867	0.2656	9.6113
2.8000	0.6837	0.2357	9.6311
2.8050	0.6820	0.2471	9.5748
2.8100	0.6598	0.2429	9.6454
2.8150	0.6784	0.2375	9.6305
2.8200	0.6849	0.2495	9.6472
2.8250	0.6843	0.2477	9.6341
2.8300	0.6921	0.2734	9.6394
2.8350	0.6927	0.2483	9.6119
2.8400	0.7077	0.2632	9.6281
2.8450	0.6933	0.2656	9.5898
2.8500	0.6646	0.2441	9.6149
2.8550	0.6640	0.2411	9.6580
2.8600	0.6724	0.2506	9.6370
2.8650	0.6598	0.2435	9.6412
2.8700	0.6730	0.2453	9.6580
2.8750	0.6814	0.2680	9.6382
2.8800	0.6730	0.2602	9.6311
2.8850	0.6730	0.2429	9.6376
2.8900	0.6407	0.2506	9.6329
2.8950	0.6724	0.2608	9.6287
2.9000	0.6903	0.2465	9.6107
2.9050	0.6694	0.2363	9.6933
2.9100	0.6784	0.2453	9.6580
2.9150	0.6658	0.2483	9.6442
2.9200	0.6742	0.2560	9.6287
2.9250	0.6688	0.2381	9.6167
2.9300	0.6820	0.2590	9.6388
2.9350	0.6903	0.2560	9.6616
2.9400	0.6640	0.2566	9.6191
2.9450	0.6808	0.2524	9.6526
2.9500	0.6790	0.2518	9.4947
2.9550	0.6694	0.2405	9.5964
2.9600	0.6909	0.2441	9.6520
2.9650	0.6933	0.2596	9.6305
2.9700	0.6766	0.2261	9.6640
2.9750	0.6616	0.2500	9.6843
2.9800	0.6879	0.2495	9.6161
2.9850	0.6688	0.2650	9.6424
2.9900	0.6945	0.2495	9.6239
2.9950	0.6831	0.2303	9.6341
3.0000	0.6634	0.2698	9.6245
3.0050	0.6891	0.2417	9.6472
3.0100	0.6700	0.2489	9.6143
3.0150	0.6772	0.2423	9.6203
3.0200	0.6778	0.2542	9.6263
3.0250	0.6849	0.2542	9.6723
3.0300	0.6939	0.2560	9.6376
3.0350	0.6694	0.2435	9.6131
3.0400	0.6676	0.2489	9.7830
3.0450	0.6891	0.2435	9.6083
3.0500	0.6736	0.2447	9.6131
3.0550	0.6670	0.2399	9.6376
3.0600	0.6885	0.2776	9.5718
3.0650	0.6951	0.2477	9.6281
3.0700	0.6640	0.2405	9.6269
3.0750	0.6604	0.2704	9.5850
3.0800	0.6933	0.2740	9.6329
3.0850	0.7017	0.2620	9.6341
3.0900	0.6688	0.2381	9.6149
3.0950	0.6891	0.2578	9.6394
3.1000	0.6754	0.2417	9.6430
3.1050	0.6670	0.2614	9.6006
3.1100	0.6736	0.2554	9.6640
3.1150	0.6945	0.2578	9.6059
3.1200	0.6742	0.2572	9.6269
3.1250	0.6945	0.2590	9.6556
3.1300	0.6927	0.2405	9.6281
3.1350	0.6861	0.2584	9.6227
3.1400	0.6784	0.2692	9.6233
3.1450	0.6843	0.2764	9.6071
3.1500	0.6772	0.2411	9.6335
3.1550	0.6933	0.2405	9.7842
3.1600	0.6873	0.2572	9.6568
3.1650	0.6694	0.2566	9.5808
3.1700	0.6568	0.2656	9.6006
3.1750	0.7071	0.2435	9.6299
3.1800	0.6574	0.0341	9.6646
3.1850	0.7765	0.0461	9.4037
3.1900	0.8465	0.2154	9.7411
3.1950	0.9045	0.2770	9.3212
3.2000	0.6568	0.2351	9.7005
3.2050	0.3583	-0.2889	8.6937
3.2100	0.6305	0.7992	9.9924
3.2150	0.0760	0.2686	9.6891
3.2200	0.7208	0.5659	9.0281
3.2250	0.5791	0.2877	9.7202
3.2300	0.7412	1.8096	9.3373
3.2350	0.8327	2.0776	7.7784
3.2400	1.5685	0.5509	10.5439
3.2450	1.0343	1.3448	11.1116
3.2500	1.2712	0.0006	10.5828
3.2550	-0.0736	0.3858	10.9357
3.2600	0.5785	-0.3601	9.4193
3.2650	0.9141	-0.7872	9.2572
3.2700	0.5192	0.8644	10.0055
3.2750	-0.0431	0.1795	9.4899
3.2800	0.5025	-0.0437	9.2626
3.2850	0.6126	0.0215	9.9876
3.2900	0.5976	-0.3176	10.2358
3.2950	0.3356	0.7753	9.4402
3.3000	0.9571	0.5210	9.2931
3.3050	0.4062	1.2808	10.5523
3.3100	0.9948	0.8447	9.1627
3.3150	1.7306	0.1496	9.9457
3.3200	1.0606	0.1693	9.8243
3.3250	0.1771	0.1364	9.5102
3.3300	0.6969	0.0664	9.5712
3.3350	0.6317	0.7460	9.6951
3.3400	0.5797	0.9290	9.2961
3.3450	1.1791	0.2710	9.9003
3.3500	0.3422	0.6036	10.0941
3.3550	0.8512	0.1783	9.5108
3.3600	0.5025	0.2584	8.9306
3.3650	0.2321	0.1023	10.1766
3.3700	0.5067	0.2435	9.7884
3.3750	1.2532	-0.0520	8.9563
3.3800	0.7310	-0.2058	8.9653
3.3850	1.2999	0.0419	8.5621
3.3900	0.2154	0.5019	9.8111
3.3950	0.3494	0.1472	9.7483
3.4000	0.1430	1.0092	9.0658
3.4050	0.8638	-0.1777	9.4366
3.4100	0.8596	0.0144	9.5922
3.4150	0.8901	0.7322	10.1318
3.4200	0.3703	0.1735	9.6107
3.4250	0.4325	-0.0790	10.3830
3.4300	0.8662	0.2859	9.1262
3.4350	0.6526	0.6185	9.4911
3.4400	0.8913	-0.0682	9.6759
3.4450	0.7244	0.1442	8.4412
3.4500	0.0891	-0.0018	8.6291
3.4550	0.3817	-0.1519	7.8921
3.4600	0.2734	0.1813	8.0656
3.4650	0.8321	0.5725	10.1377
3.4700	0.9458	0.8130	11.1397
3.4750	0.9649	-0.0742	9.9834
3.4800	0.9631	0.2943	9.2010
3.4850	0.0532	0.1944	10.0612
3.4900	0.5898	0.3063	9.7758
3.4950	0.7549	0.1705	9.4678
3.5000	0.2626	0.6831	9.6574
3.5050	1.0857	-0.4002	10.1144
3.5100	0.6000	0.7059	9.5575
3.5150	0.9320	0.3027	9.2811
3.5200	0.5593	0.2094	9.6287
3.5250	0.7789	0.7519	9.4941
3.5300	0.6036	0.2130	9.6221
3.5350	0.6000	0.2189	9.7752
3.5400	0.9111	0.4774	9.7340
3.5450	0.0473	0.0419	9.8231
3.5500	0.4349	0.2279	8.9784
3.5550	0.8405	0.0832	8.9342
3.5600	0.8333	0.8494	9.5521
3.5650	0.6359	0.4140	10.1048
3.5700	0.7836	0.0634	10.2149
3.5750	0.9147	0.1914	9.3744
3.5800	0.5204	0.0987	9.6053
3.5850	0.6401	0.5276	9.6664
3.5900	0.5079	0.7131	10.4961
3.5950	0.8698	-0.6574	9.6987
3.6000	0.5551	0.0682	9.8751
3.6050	0.4247	-0.3912	10.0857
3.6100	0.0778	0.5462	8.8839
3.6150	0.4481	0.0108	9.6975
3.6200	0.7765	0.3075	9.0975
3.6250	0.7801	-0.3511	9.5096
3.6300	0.3888	0.0508	9.7716
3.6350	0.4331	0.1220	9.5294
3.6400	0.9416	-0.5043	9.4701
3.6450	0.7555	0.4134	10.0432
3.6500	0.5569	-0.1077	9.9038
3.6550	0.9254	0.2381	9.6000
3.6600	0.3942	0.7723	10.9238
3.6650	0.9655	0.6574	10.4321
3.6700	0.6329	0.9344	10.2705
3.6750	0.9787	0.2148	9.5724
3.6800	0.9428	-0.0808	9.4031
3.6850	0.6036	-0.0233	8.7421
3.6900	0.6042	0.2949	8.7786
3.6950	0.8632	-0.0933	9.2368
3.7000	0.8339	1.2706	10.0133
3.7050	0.5737	-0.4642	9.6975
3.7100	0.5862	0.2644	10.1916
3.7150	1.0104	-0.1986	10.1533
3.7200	1.1133	0.0197	9.7669
3.7250	0.2261	-0.2279	9.7052
3.7300	0.6700	0.3960	9.0640
3.7350	0.8865	0.4935	9.6149
3.7400	0.3565	0.7334	9.4199
3.7450	0.9464	-0.7208	9.3517
3.7500	0.6461	1.9011	9.3738
3.7550	0.5270	-0.6592	9.3242
3.7600	0.6066	0.4935	9.8632
3.7650	0.9452	-0.1890	10.4602
3.7700	0.5444	0.2118	9.4947
3.7750	0.5491	-0.4546	9.7274
3.7800	1.0397	1.1127	9.1728
3.7850	0.4283	0.7765	9.0496
3.7900	1.4321	-0.0945	9.0664
3.7950	1.1342	0.3661	9.4115
3.8000	0.5372	-0.0293	9.7011
3.8050	1.3573	0.1137	10.5302
3.8100	1.1246	0.3188	8.9144
3.8150	0.1513	0.3230	9.9631
3.8200	1.1838	0.5432	10.0893
3.8250	0.1035	1.0229	10.2269
3.8300	0.8572	-1.0582	10.2155
3.8350	0.2889	0.5605	9.6119
3.8400	0.3858	0.0628	9.4067
3.8450	0.7866	0.4002	9.6765
3.8500	1.0977	0.5450	9.7262
3.8550	0.5019	-0.0736	9.9397
3.8600	0.9009	-0.0054	8.4861
3.8650	0.1848	0.3129	9.5551
3.8700	1.1761	0.8315	9.1692
3.8750	-0.1029	1.3818	9.2075
3.8800	1.1593	-0.6024	9.5449
3.8850	1.0134	0.9667	9.6813
3.8900	0.6413	0.0179	9.8315
3.8950	0.8907	0.4510	9.2201
3.9000	0.7208	0.8716	9.8422
3.9050	1.0014	0.7741	10.5738
3.9100	0.1304	-0.1603	9.7651
3.9150	1.5649	-0.9541	9.6867
3.9200	-0.0036	1.6463	9.6975
3.9250	0.6185	-0.6173	8.3491
3.9300	1.0355	0.7178	9.4821
3.9350	0.0431	0.0945	9.1531
3.9400	0.6449	0.4349	9.5437
3.9450	1.0630	-0.2261	9.3637
3.9500	1.1838	0.4307	9.5359
3.9550	-0.0682	0.0144	9.8751
3.9600	1.2712	0.1089	10.0097
3.9650	0.3918	1.4375	10.3764
3.9700	0.7071	0.1926	10.2263
3.9750	1.2161	-0.0873	10.2077
3.9800	0.6030	0.1723	9.4731
3.9850	0.6772	0.5539	8.8851
3.9900	0.7292	0.1298	9.2871
3.9950	0.5856	0.0485	9.7950
4.0000	0.2764	0.2136	9.1477
4.0050	0.6598	0.3470	10.2861
4.0100	0.2913	0.5803	9.6705
4.0150	0.8189	-0.1998	8.8749
4.0200	0.4253	0.8339	9.4456
4.0250	0.4175	-0.3876	9.8727
4.0300	0.6060	0.1424	8.8588
4.0350	0.7525	0.1884	9.6430
4.0400	1.1647	0.4463	9.1405
4.0450	0.6921	0.2794	10.1545
4.0500	1.1743	1.5452	9.7058
4.0550	0.1621	0.6173	9.5491
4.0600	0.9152	-0.2674	10.6253
4.0650	0.2536	0.6682	9.8075
4.0700	0.7801	-0.5486	9.6903
4.0750	0.8704	0.3422	9.8997
4.0800	0.9613	0.3924	9.6089
4.0850	0.4205	-0.2429	8.5334
4.0900	1.6157	-0.0108	9.0335
4.0950	0.4433	1.0199	10.0061
4.1000	0.7537	0.6748	10.0366
4.1050	0.0550	0.6939	9.3182
4.1100	1.1300	0.0293	9.1244
4.1150	0.7938	0.7513	10.0851
4.1200	1.0792	0.4636	9.6538
4.1250	0.8453	-0.4134	9.4767
4.1300	1.0229	0.3164	10.7318
4.1350	0.1448	0.1908	9.4253
4.1400	1.6145	0.8794	9.4468
4.1450	0.0269	1.0540	10.3112
4.1500	1.2179	-0.1220	9.7244
4.1550	0.4056	0.5162	10.2179
4.1600	0.4349	-0.5719	9.5700
4.1650	0.5503	0.5115	9.1501
4.1700	0.8058	0.2351	9.3541
4.1750	0.7119	-0.0760	8.6351
4.1800	1.2921	0.6467	9.2327
4.1850	0.2405	1.0774	9.4247
4.1900	0.0622	0.5844	9.7788
4.1950	0.2871	0.9906	9.6305
4.2000	0.9009	-0.2411	9.3344
4.2050	0.6700	0.2070	10.4105
4.2100	0.9757	0.1789	9.3481
4.2150	1.1958	-0.2877	8.5710
4.2200	0.3338	0.9129	11.0865
4.2250	1.0367	0.1777	10.6677
4.2300	0.7322	1.0271	10.0636
4.2350	1.3543	-0.1531	9.3900
4.2400	-0.0120	1.3675	10.0666
4.2450	0.4558	0.2357	9.8883
4.2500	0.3757	0.0556	9.4474
4.2550	0.3069	-0.0855	10.1533
4.2600	0.4816	-0.1280	9.8482
4.2651	1.1617	-0.0814	9.8781
4.2701	0.7274	0.2961	10.5511
4.2751	0.9523	0.4008	10.1838
4.2801	0.4229	-0.1418	9.4833
4.2851	0.7107	0.2405	10.6767
4.2901	0.2710	0.0532	9.8775
4.2951	0.9105	-0.3374	9.1537
4.3001	0.8620	-0.2512	9.0873
4.3051	0.4445	0.5671	9.7142
4.3101	1.2245	0.2154	9.2291
4.3151	0.1346	0.5246	9.4432
4.3201	0.5073	-0.1663	9.8081
4.3251	0.3374	0.4241	9.8697
4.3301	1.1922	0.1627	10.2197
4.3351	0.4827	0.7268	10.6695
4.3401	1.0498	-0.5174	10.4614
4.3451	0.8148	0.2824	9.9852
4.3501	0.7609	0.0843	10.2568
4.3551	0.8722	0.2764	9.7399
4.3601	0.7119	0.6425	9.7250
4.3651	0.9655	-0.6215	9.1531
4.3701	1.0122	0.5282	8.7397
4.3751	0.7980	0.3452	10.1850
4.3801	-0.0712	0.7681	9.3828
4.3851	1.2574	0.1065	10.1371
4.3901	0.1573	0.5809	8.7822
4.3951	1.0253	-0.0706	9.8255
4.4001	0.2919	0.4762	9.9643
4.4051	0.5629	0.0706	9.4247
4.4101	0.2794	-0.1573	8.9994
4.4151	1.0552	0.7908	9.1393
4.4201	0.6951	0.1753	9.0885
4.4251	0.3823	0.9272	9.1465
4.4301	0.3619	0.3990	9.2345
4.4351	0.5737	-0.2004	8.5663
4.4401	1.4142	-0.2877	10.1778
4.4451	-0.0760	0.4827	8.6494
4.4501	1.4429	0.2046	10.5104
4.4551	0.1125	0.4068	8.9216
4.4601	0.9135	0.2925	9.1687
4.4651	0.2171	0.5318	10.5948
4.4701	0.4092	0.6778	9.9457
4.4751	0.9260	-0.3661	9.7764
4.4801	0.2309	0.5390	10.2293
4.4851	0.7998	-0.3912	9.1782
4.4901	1.1480	0.0491	8.9874
4.4951	0.3960	0.4403	9.2662
4.5001	1.1970	0.0060	9.9750
4.5051	0.5025	0.6203	9.7064
4.5101	0.4421	0.0616	9.6113
4.5151	0.4941	-0.0383	9.6376
4.5201	1.5511	-0.2405	9.5641
4.5251	-0.4636	0.5139	9.3858
4.5301	1.4375	0.0485	8.8241
4.5351	-0.2794	0.2770	9.3427
4.5401	1.5350	0.2483	9.0598
4.5451	0.1723	0.9278	10.5613
4.5501	1.1282	-0.2028	9.4719
4.5551	-0.1944	-0.2680	10.5559
4.5601	0.6269	1.0325	9.0101
4.5651	1.1647	0.1866	8.5453
4.5701	0.7555	0.0802	9.1567
4.5751	0.8213	0.9631	10.2658
4.5801	0.2489	0.4086	9.0993
4.5851	0.8584	-0.0162	8.7523
4.5901	0.6263	0.4684	9.2213
4.5951	0.4786	0.2979	10.1270
4.6001	0.6760	0.7723	9.5641
4.6051	-0.5994	0.8668	9.8033
4.6101	0.6341	1.1007	10.1437
4.6151	0.5384	0.0694	9.6239
4.6201	0.7866	0.2273	10.2795
4.6251	1.2730	0.4594	10.4566
4.6301	-0.1047	0.3559	10.5248
4.6351	1.8233	-0.7101	9.7088
4.6401	1.1850	0.6927	10.3531
4.6451	0.3643	-0.0544	9.5958
4.6501	1.0899	0.1807	9.2775
4.6551	0.1274	0.3972	9.0873
4.6601	0.6897	0.7358	9.7011
4.6651	0.2225	0.1065	9.5126
4.6701	1.0397	0.3511	9.5862
4.6751	0.8219	-0.0897	9.2333
4.6801	1.4506	-0.0592	10.1336
4.6851	0.4062	-0.1292	9.9990
4.6901	0.5773	0.1202	9.5246
4.6951	0.8800	0.6437	9.6293
4.7001	1.1826	0.0281	8.9270
4.7051	0.7501	0.6108	9.5144
4.7101	1.4022	0.0604	10.0965
4.7151	-0.0329	0.7789	10.0797
4.7201	0.8752	-0.2764	10.0456
4.7251	0.0449	0.2758	10.1862
4.7301	1.4572	0.1836	10.1042
4.7351	0.3823	0.1232	9.3391
4.7401	1.4118	-0.1286	9.4618
4.7451	0.3553	0.5862	9.6676
4.7501	1.0624	0.1220	8.6530
4.7551	0.4857	0.4672	9.2973
4.7601	0.5910	0.3254	9.3074
4.7651	0.0730	0.7370	9.6251
4.7701	0.1908	0.9003	10.0737
4.7751	-0.1274	0.8417	9.8117
4.7801	0.9404	-0.4540	9.6837
4.7851	1.1545	-0.3978	8.8271
4.7901	1.3830	0.0138	9.1459
4.7951	0.3188	-0.0640	8.9557
4.8001	0.6455	1.1856	9.1842
4.8051	1.2431	-0.0497	9.5425
4.8101	-0.0909	1.3519	9.7112
4.8151	1.0708	-0.5055	10.5176
4.8201	0.5791	0.8614	9.7992
4.8251	0.8776	-0.3781	9.9152
4.8301	0.8536	0.9326	10.3154
4.8351	1.1474	-0.3996	10.5529
4.8401	1.1324	0.8291	8.7248
4.8451	0.6837	-0.2010	9.7782
4.8501	0.3308	0.9404	10.5984
4.8551	1.2586	-0.9882	9.9020
4.8601	0.8387	0.1017	8.8582
4.8651	0.6652	0.0467	11.9688
4.8701	0.6921	1.3460	11.2025
4.8751	0.8231	-0.3882	8.9712
4.8801	1.6277	-0.0162	9.3750
4.8851	0.6945	0.3763	9.5910
4.8901	0.6030	0.5348	9.9152
4.8951	0.5785	-0.1436	9.1776
4.9001	0.8267	0.3733	9.9068
4.9051	0.5013	0.5575	9.2500
4.9101	1.0510	0.2758	8.7613
4.9151	1.0816	0.1424	10.4662
4.9201	0.0341	0.4325	9.8333
4.9251	1.0128	-0.4744	9.9930
4.9301	0.7669	0.9709	9.8775
4.9351	0.2680	-0.4241	9.5862
4.9401	0.6766	-0.0138	9.6023
4.9451	1.1103	-0.0257	9.0388
4.9501	1.0660	0.6945	8.4753
4.9551	0.1370	0.2321	10.1958
4.9601	1.1192	0.8800	10.1868
4.9651	0.8919	0.3924	8.8666
4.9701	0.4833	0.8171	9.2799
4.9751	0.5557	0.0873	9.3840
4.9801	0.5707	0.4564	9.8374
4.9851	0.8237	0.2734	9.6083
4.9901	0.3021	0.7472	9.5790
4.9951	0.4804	-0.3290	9.2805
5.0001	1.0104	0.2614	9.8021
5.0051	0.5198	0.9787	10.4261
5.0101	0.7717	0.0233	10.6073
5.0151	0.7334	-0.2207	9.0484
5.0201	0.7681	0.6861	9.4827
5.0251	0.6317	-0.2309	9.2321
5.0301	0.9547	0.6407	9.4031
5.0351	1.2353	-0.3272	9.9714
5.0401	0.4857	0.1777	9.4654
5.0451	0.7663	0.2776	10.3286
5.0501	1.0092	0.7699	9.8099
5.0551	0.5958	0.6365	9.0023
5.0601	1.0481	0.4714	9.4839
5.0651	0.6897	0.5240	10.5517
5.0701	1.0475	-0.1328	9.3391
5.0751	0.5121	-1.0175	9.9200
5.0801	0.1113	-0.0078	9.7142
5.0851	1.0792	-0.5432	9.2004
5.0901	0.6173	0.1316	8.8253
5.0951	0.7507	0.4110	9.3074
5.1001	0.9565	0.3446	10.3872
5.1051	0.6808	0.6185	9.5688
5.1101	0.7783	0.0162	10.6067
5.1151	1.0750	0.0634	9.9014
5.1201	0.4074	0.6042	10.0875
5.1251	1.1892	0.0897	9.7692
5.1301	0.0981	0.1454	9.9062
5.1351	1.8066	-0.5091	9.8871
5.1401	0.2955	0.5491	10.3351
5.1451	0.8309	-0.1178	9.5748
5.1501	0.0305	1.1019	10.5906
5.1551	0.2267	0.0694	9.8739
5.1601	0.9009	0.5497	9.6221
5.1651	0.1645	-0.2459	9.4899
5.1701	1.2185	0.1651	10.1341
5.1751	1.2604	0.0604	11.1906
5.1801	0.6048	0.0431	9.8847
5.1851	1.2538	-0.2112	9.7878
5.1901	0.0144	0.8758	9.1184
5.1951	0.8309	-0.4576	9.3774
5.2001	0.6132	0.5689	9.6065
5.2051	0.5192	-0.4235	9.0604
5.2101	0.7328	0.5097	9.8087
5.2151	0.9799	-0.1047	10.0767
5.2201	0.1190	0.3876	9.6472
5.2251	1.5218	-0.3715	9.0550
5.2301	0.7454	0.6688	10.0151
5.2351	0.5988	-0.3673	9.0939
5.2401	0.2483	0.6754	9.0981
5.2451	0.9799	-0.1208	8.5980
5.2501	0.8650	0.7699	8.9694
5.2551	0.3266	0.0861	9.6729
5.2601	0.5354	0.5228	9.2374
5.2651	0.2614	0.5127	9.9218
5.2701	0.7322	0.5785	9.8051
5.2751	0.3123	0.4774	10.3579
5.2801	0.9218	-1.0181	10.1605
5.2851	1.5206	0.0263	10.4650
5.2901	0.5761	0.2961	10.2448
5.2951	0.8052	-0.4379	9.9966
5.3001	0.4678	0.7986	9.9786
5.3051	0.1854	-0.0413	9.9738
5.3101	1.1749	-0.1842	9.3613
5.3151	0.8154	0.2865	9.0837
5.3201	0.5850	0.2596	9.9128
5.3251	0.4798	0.3840	9.4325
5.3301	1.0313	-0.2082	8.4909
5.3351	0.4385	0.8381	9.3367
5.3401	0.5587	0.3135	10.2843
5.3451	0.5372	0.1735	9.7351
5.3501	1.0570	0.0293	9.1519
5.3551	1.0929	0.2806	9.5156
5.3601	1.0552	-0.4690	9.5180
5.3651	0.4104	0.8823	8.0416
5.3701	0.6598	-0.1884	9.1836
5.3751	0.0126	1.1844	9.7537
5.3801	0.0251	-0.1585	9.2273
5.3851	0.4672	1.4895	9.3679
5.3901	1.3220	-0.8112	9.4480
5.3951	0.7771	0.6329	9.6825
5.4001	0.9918	0.0413	9.3649
5.4051	0.2459	0.1448	9.0484
5.4101	0.6520	-0.2841	9.3637
5.4151	0.5444	0.8494	9.6897
5.4201	0.5539	0.2728	9.7698
5.4251	0.5737	0.0114	10.2921
5.4301	1.1444	0.3595	11.0386
5.4351	1.1324	0.2889	9.3613
5.4401	0.5976	-0.0467	10.4739
5.4451	-0.2572	0.8106	9.0981
5.4501	0.4181	0.3254	9.2087
5.4551	0.7364	0.8722	8.8217
5.4601	0.9948	0.2285	9.1226
5.4651	0.4786	0.4863	9.6071
5.4701	1.2437	0.7495	9.7489
5.4751	-0.1615	1.4925	10.0265
5.4801	1.7785	-0.6359	10.1018
5.4851	0.2130	0.9027	10.1054
5.4901	0.7878	-0.9834	9.9475
5.4951	0.6718	0.4481	10.5337
5.5001	0.8823	0.4074	9.9314
5.5051	1.1162	-0.1645	8.8618
5.5101	0.5157	0.2219	8.9904
5.5151	1.0983	0.0036	10.6175
5.5201	-0.0437	1.0875	9.9026
5.5251	0.6514	-1.2401	9.6999
5.5301	-0.7866	0.6066	9.9643
5.5351	1.1988	-0.7238	8.9443
5.5401	0.3111	0.3123	9.7866
5.5451	1.0092	0.7914	9.2614
5.5501	0.3739	-0.2004	10.0450
5.5551	0.3236	0.9547	9.9451
5.5601	1.1240	-0.9601	9.3637
5.5651	0.1645	0.3918	9.8344
5.5701	1.2455	-0.5186	8.3348
5.5751	0.0467	0.3027	9.6652
5.5801	0.9906	-0.3099	10.6325
5.5851	0.6544	-0.0688	9.4109
5.5901	0.8620	0.9009	8.5842
5.5951	0.6796	0.7848	8.9449
5.6001	0.0359	-0.2004	8.6225
5.6051	1.1067	-0.2919	8.7469
5.6101	0.0826	1.3914	9.3607
5.6151	0.9834	0.6006	9.0496
5.6201	-0.3709	1.1874	8.9395
5.6251	0.6730	0.0951	8.6686
5.6301	0.3075	0.8219	8.4664
5.6351	-0.4199	0.7962	8.6189
5.6401	1.1515	-1.1049	8.1720
5.6451	0.4971	1.5906	9.1352
5.6501	0.8554	-0.1418	10.3950
5.6551	0.0897	0.5809	10.1880
5.6601	0.6425	0.0808	10.0594
5.6651	1.1916	0.2387	10.1754
5.6701	-0.1890	-0.1172	8.0434
5.6751	0.3894	-0.7711	8.5286
5.6801	0.5240	0.4020	9.4803
5.6851	0.5641	0.2883	9.7531
5.6901	-0.0269	0.9356	10.0773
5.6951	0.7531	-0.7561	9.8889
5.7001	0.0604	1.0331	9.3738
5.7051	0.7053	0.1813	10.9345
5.7101	-0.1196	0.2716	8.0494
5.7151	1.0301	0.1555	9.7764
5.7201	0.1627	-0.6772	10.1150
5.7251	1.2323	0.0120	9.6741
5.7301	0.1292	-0.0843	8.3192
5.7351	0.8387	1.3639	9.2757
5.7401	2.2612	0.5629	11.0069
5.7451	0.3488	0.8823	10.8430
5.7501	2.2971	-0.6245	9.5659
5.7551	0.9482	0.5527	10.6151
5.7601	0.0443	0.4822	9.1017
5.7651	0.4684	-1.4016	9.8668
5.7701	1.1079	0.4624	9.9146
5.7751	1.3789	0.9613	8.9096
5.7801	1.2120	-0.4630	9.4695
5.7851	0.6784	2.0608	9.5042
5.7901	1.8114	0.1866	10.2251
5.7951	0.4349	0.4893	9.8991
5.8001	1.8024	-0.1950	10.7228
5.8051	-1.1432	-0.2548	10.1617
5.8101	0.8483	-0.2435	7.6355
5.8151	0.8925	0.2064	9.3308
5.8201	0.2315	1.2281	8.1027
5.8251	2.0100	0.3990	8.5543
5.8301	-0.8710	0.1442	9.4989
5.8351	2.0805	0.0855	8.0297
5.8401	0.7005	0.3410	11.4508
5.8451	1.4183	2.6536	10.1611
5.8501	2.0746	-0.4642	9.3996
5.8551	0.6018	0.5910	10.4811
5.8601	1.1826	0.5767	9.0873
5.8651	0.6461	-0.1083	11.9706
5.8701	0.6413	-0.0066	9.3696
5.8751	-0.1454	0.1717	8.9019
5.8801	0.7633	-0.6945	8.6207
5.8851	0.0485	0.2489	8.5250
5.8901	0.6885	0.8447	9.3104
5.8951	1.2126	-0.4863	10.3387
5.9001	0.9583	-0.1687	10.3334
5.9051	0.1310	0.6335	11.2295
5.9101	-0.1591	-0.8399	8.7912
5.9151	1.7503	0.5174	13.1024
5.9201	1.0726	2.5513	11.0117
5.9251	0.8919	0.8506	9.1196
5.9301	0.9272	0.9278	10.1192
5.9351	1.0672	0.2453	9.5910
5.9401	0.0760	1.0146	9.2470
5.9451	-0.1382	-0.8423	8.6967
5.9501	1.1647	-1.1707	7.2107
5.9551	1.1677	2.4437	9.4450
5.9601	0.3547	0.1316	10.1407
5.9651	0.6419	-0.8494	7.1581
5.9701	0.7304	0.2106	8.9748
5.9751	1.1557	1.1318	8.2522
5.9801	1.1725	0.0957	10.7419
5.9851	0.9057	-0.0586	9.2931
5.9901	2.0476	-0.6383	8.7062
5.9951	0.2602	0.9493	10.9076
6.0001	0.8919	0.1131	10.7862
6.0051	1.5051	0.2788	10.9627
6.0101	1.4375	0.4110	12.4558
6.0151	0.6341	-0.5880	10.5260
6.0201	0.3876	-0.0461	10.8245
6.0251	-0.0742	0.1573	10.1222
6.0301	1.1031	1.3095	9.8063
6.0351	1.3986	-0.6060	9.9152
6.0401	0.6305	1.3968	11.2659
6.0451	0.3242	-0.8213	8.7553
6.0501	0.9972	-0.0748	9.1932
6.0551	-0.1226	0.8668	8.7469
6.0601	1.6403	1.0355	9.8285
6.0651	-0.5731	0.0036	9.9469
6.0701	1.4794	-0.9093	8.7918
6.0751	-0.2895	0.5958	7.9352
6.0801	1.0068	0.1759	10.1724
6.0851	-0.1155	0.8818	10.4003
6.0901	0.7047	-0.5539	9.8608
6.0951	1.3938	-0.3236	9.0747
6.1001	0.5880	0.1262	9.0849
6.1051	1.6594	0.9093	9.0885
6.1101	-0.1848	0.3494	9.6376
6.1151	1.0833	0.2124	8.9461
6.1201	-0.1053	1.6702	9.3158
6.1251	1.1707	-1.2096	9.1124
6.1301	0.6640	2.0327	9.3015
6.1351	2.6644	-0.5713	11.9605
6.1401	1.1832	1.3334	9.3445
6.1451	0.6108	0.4140	10.2251
6.1501	0.4481	-0.7759	9.4767
6.1551	0.6814	0.0796	8.9772
6.1601	0.4481	2.0231	8.7852
6.1651	1.6546	-0.0981	10.0941
6.1701	-0.4122	2.2594	6.9643
6.1751	0.1825	-0.6407	8.8396
6.1801	0.1125	0.2973	10.9250
6.1851	0.4684	0.7735	8.6339
6.1901	-0.2824	0.0150	11.4598
6.1951	0.6514	-1.2538	11.9198
6.2001	1.4829	0.1101	10.0965
6.2051	0.5725	1.1013	11.0937
6.2101	0.2925	-1.0283	8.4251
6.2151	0.5946	-0.3314	8.4705
6.2201	0.0108	-1.4195	11.8492
6.2251	-0.4283	0.8788	7.8215
6.2301	0.6598	-0.6927	10.1760
6.2351	0.0586	0.9846	8.2109
6.2401	0.1878	-1.0887	7.7946
6.2451	1.8293	0.4445	10.0803
6.2501	-0.2686	0.0526	9.8620
6.2551	0.8997	-0.8387	8.0243
6.2601	1.1731	0.8722	9.0185
6.2651	-1.2048	-0.3159	7.0026
6.2701	1.0229	-0.6257	8.5292
6.2751	0.4199	-0.2656	10.0091
6.2801	0.8405	-1.0337	6.9427
6.2851	1.5302	2.2397	12.8117
6.2901	0.9523	-1.1150	10.2394
6.2951	2.0692	0.7101	7.7730
6.3001	0.9493	0.5001	9.2937
6.3051	-0.4002	0.6903	8.2989
6.3101	1.5206	0.7436	9.1854
6.3151	-0.0550	0.1842	9.6538
6.3201	1.4153	0.1651	8.8265
6.3251	0.7735	0.7035	10.0396
6.3301	0.8405	-0.6161	9.3792
6.3351	0.6897	0.9864	9.8865
6.3401	-0.1155	-0.0604	9.1675
6.3451	0.9380	0.0754	9.2626
6.3501	0.6538	2.1428	10.5463
6.3551	0.1017	-0.5557	9.2739
6.3601	1.0810	0.4756	7.3214
6.3651	2.1661	0.3416	10.0683
6.3701	-0.1813	0.1334	8.6775
6.3751	1.5332	-0.0574	10.9088
6.3801	-0.3494	-0.6413	8.5040
6.3851	1.4429	0.9290	8.8402
6.3901	0.9709	0.1537	9.8757
6.3951	-0.2381	-0.0784	8.0913
6.4001	2.0931	-0.0185	9.4151
6.4051	0.2871	0.2829	10.6743
6.4101	0.3577	-0.4624	7.6755
6.4151	0.1095	1.6415	7.8568
6.4201	1.0738	-0.9087	8.8959
6.4251	0.5761	0.5115	9.9822
6.4301	0.4181	-0.3332	9.6729
6.4351	0.8937	0.8171	10.6600
6.4401	0.2154	1.1480	9.6592
6.4451	0.9499	-0.9176	9.9822
6.4501	-0.4822	-0.4044	9.9684
6.4551	0.5647	0.2991	9.1525
6.4601	-0.3978	0.5850	7.2957
6.4651	-0.1992	1.1103	9.2135
6.4701	0.7531	0.2010	9.1094
6.4751	1.2173	0.3188	10.2317
6.4801	-0.3637	-0.6377	8.9689
6.4851	-0.1525	1.3436	8.4329
6.4901	0.4014	-0.1597	11.3353
6.4951	0.5342	-0.8447	9.6472
6.5001	0.4445	1.9992	8.8067
6.5051	0.2255	0.4026	7.0259
6.5101	0.9410	0.2225	10.0115
6.5151	-0.1848	-0.0867	10.6863
6.5201	0.1669	0.0921	8.5896
6.5251	0.5210	-0.2369	9.7908
6.5301	-1.0899	0.4074	7.9794
6.5351	1.4405	-1.3400	8.9521
6.5401	-0.0975	0.5749	11.0117
6.5451	0.9769	-0.8267	9.7082
6.5501	0.3482	0.7675	10.7922
6.5551	0.6891	-0.2716	10.6354
6.5601	0.9846	0.4965	10.3932
6.5651	0.7119	1.0666	11.3658
6.5701	0.9769	-1.4231	9.2004
6.5751	0.9212	1.1001	10.4733
6.5801	0.2148	0.8291	10.3136
6.5851	0.8770	0.7687	9.4325
6.5901	0.6299	0.0329	9.8691
6.5951	-0.0060	0.9697	8.2731
6.6001	1.2939	-0.4283	9.7142
6.6051	0.0814	0.3888	9.7591
6.6101	0.7119	0.4140	9.6999
6.6151	0.5856	0.1795	10.2598
6.6201	0.5384	1.1019	8.4592
6.6251	1.7737	-0.9900	9.8177
6.6301	-0.1615	0.3709	10.5427
6.6351	0.3314	-0.5946	10.2550
6.6401	0.8387	1.2652	9.2757
6.6451	0.1699	0.3852	10.0701
6.6501	0.9434	1.6451	10.4488
6.6551	2.4490	1.7850	9.0406
6.6601	0.5348	0.8668	10.7712
6.6651	1.8269	1.4841	12.9385
6.6701	0.3972	-0.0502	9.9948
6.6751	0.9045	-1.0056	10.1784
6.6801	0.2865	-0.2171	10.2652
6.6851	0.9458	0.3159	10.1563
6.6901	1.8084	-0.6867	8.6751
6.6951	0.4965	1.7318	9.4821
6.7001	0.6449	-0.4510	9.5120
6.7051	1.0582	0.1484	9.2871
6.7101	0.3452	-0.2877	10.3938
6.7151	0.5928	1.7707	10.3202
6.7201	0.6461	0.0867	9.2823
6.7251	1.8658	-0.2752	10.2340
6.7301	0.5521	-0.4355	9.3738
6.7351	0.6221	0.0395	8.7511
6.7401	0.2656	-0.6778	8.8181
6.7451	0.0885	1.0157	8.5423
6.7501	0.6957	1.0666	9.3074
6.7551	0.1854	0.5157	7.7982
6.7601	1.0630	-0.8554	9.3445
6.7651	-0.2680	1.2909	8.3013
6.7701	0.9954	0.7507	9.9212
6.7751	0.1872	-0.0963	8.5752
6.7801	0.9176	0.7747	9.0909
6.7851	0.7932	-0.1609	9.7286
6.7901	0.7693	0.3703	8.7391
6.7951	0.9894	-0.3027	9.5844
6.8001	1.2790	0.7693	9.6508
6.8051	0.2052	0.6018	9.9744
6.8101	0.6024	0.3141	10.1036
6.8151	1.1216	0.1956	9.5007
6.8201	0.2010	0.4038	9.9930
6.8251	0.6969	-0.8447	9.8368
6.8301	0.7813	0.1932	9.6849
6.8351	0.0461	0.1442	8.9665
6.8401	0.4026	1.3878	10.5014
6.8451	1.3777	0.3834	10.5302
6.8501	1.3184	0.8770	10.0259
6.8551	1.4835	0.4038	11.4963
6.8601	0.3296	-1.0720	9.9888
6.8651	0.9607	0.0945	10.2879
6.8701	0.2512	-0.2560	9.6969
6.8751	0.2094	-0.2345	8.8660
6.8801	0.9589	0.5826	9.6819
6.8851	1.1785	0.6772	9.1196
6.8901	1.5105	-0.0156	9.5736
6.8951	-0.1842	0.3745	9.5353
6.9001	1.5093	-0.1184	8.6434
6.9051	0.2632	0.2865	10.4494
6.9101	0.7836	0.7519	9.9188
6.9151	0.4397	-0.2052	9.2691
6.9201	0.7914	-0.6443	8.7702
6.9251	0.2829	0.5928	10.2167
6.9301	1.1276	0.2165	8.6051
6.9351	0.4881	0.0760	10.5906
6.9401	0.5677	0.6550	9.3272
6.9451	1.2670	0.1496	9.2865
6.9501	-0.6425	0.8327	9.7334
6.9551	1.1527	-0.3870	10.1653
6.9601	0.6455	0.8698	10.5242
6.9651	1.5966	0.9493	9.3266
6.9701	0.8704	1.1037	10.7832
6.9751	1.0373	1.0684	9.4139
6.9801	0.7519	0.5719	9.6652
6.9851	-0.0377	-0.2160	10.9010
6.9901	0.9440	-0.8165	9.6592
6.9951	0.8183	0.9021	9.5114
7.0001	1.1097	0.6042	9.1698
7.0051	0.0580	0.8100	9.4713
7.0101	2.6285	0.0514	9.8189
7.0151	0.0042	1.3047	9.8578
7.0201	0.7998	0.3655	9.8817
7.0251	0.7621	-0.0963	9.0717
7.0301	0.1675	0.4181	10.3088
7.0351	1.4267	0.4038	10.6073
7.0401	0.5240	0.4319	10.3938
7.0451	2.5483	-0.7944	8.4568
7.0501	0.2399	0.6778	10.1665
7.0551	1.1186	-0.6658	8.4448
7.0601	0.5300	0.7388	9.1334
7.0651	-0.0879	0.1035	9.5982
7.0701	0.4869	0.2847	9.5677
7.0751	0.0042	0.5228	8.5980
7.0801	1.0235	-0.5653	8.7960
7.0851	-0.1394	0.8823	9.9032
7.0901	0.6736	0.6197	10.5332
7.0951	0.7651	0.0748	8.5603
7.1001	0.2740	0.5318	8.7894
7.1051	-0.3015	0.2572	9.3726
7.1101	0.3900	-0.3374	8.2582
7.1151	1.0744	0.6383	9.0789
7.1201	0.5049	0.7513	9.2285
7.1251	1.2873	0.5785	8.2540
7.1301	1.2808	0.6646	9.0047
7.1351	0.6784	1.7109	10.5762
7.1401	0.3685	-0.6790	9.7190
7.1451	0.9721	-0.0502	10.8005
7.1501	0.9864	0.2183	10.6396
7.1551	0.9141	-0.3470	9.9272
7.1601	0.4977	0.3966	9.3439
7.1651	0.9661	0.3924	10.6833
7.1701	1.3268	0.4331	8.0763
7.1751	0.5157	0.1316	11.8935
7.1801	0.7669	0.4624	8.6554
7.1851	1.6469	1.1958	8.7146
7.1901	0.8291	-0.1998	8.3455
7.1951	-0.0413	-0.1597	10.6390
7.2001	1.6510	0.0520	8.6973
7.2051	0.1878	1.5481	8.9348
7.2101	1.0122	-0.8818	8.9611
7.2151	1.4447	-0.1214	10.5038
7.2201	0.9446	-0.3697	7.7455
7.2251	0.5707	1.3298	10.9495
7.2301	0.4110	1.0421	9.6412
7.2351	0.3811	0.8142	8.9455
7.2401	1.9489	1.1575	10.8574
7.2451	-0.1866	-0.1519	12.0376
7.2501	0.9972	-1.1348	9.7250
7.2551	-0.4181	1.4435	9.4821
7.2601	-0.3870	-0.6042	10.0384
7.2651	0.1525	1.0786	11.3545
7.2701	0.7382	-0.1908	9.8291
7.2751	0.7842	-0.9015	9.7866
7.2801	0.7801	0.7304	11.4963
7.2851	-0.5629	0.1406	13.1670
7.2901	1.1067	-1.2514	9.7519
7.2951	-0.9410	0.1131	12.2620
7.3001	1.0959	-0.1364	10.0061
7.3051	1.0744	-1.3466	9.7537
7.3101	2.0453	-0.0556	8.8827
7.3151	0.4546	0.3200	9.6616
7.3201	1.3992	-0.2931	9.6939
7.3251	-0.1071	-0.0748	8.2103
7.3301	0.2758	1.1456	7.8119
7.3351	0.7783	0.2201	9.2446
7.3401	-0.7615	0.2154	8.9527
7.3451	0.5264	-0.4247	9.3996
7.3501	0.8183	-0.3446	9.4618
7.3551	1.1288	0.9278	11.2618
7.3601	-0.0389	0.5815	11.0093
7.3651	1.6827	-0.2686	9.3858
7.3701	0.7723	0.0945	9.6957
7.3751	0.5450	0.3117	10.0313
7.3801	-0.3087	-0.0604	9.9379
7.3851	0.7531	1.0044	8.2630
7.3901	1.1892	0.0293	9.8853
7.3951	-0.0832	0.1699	8.8390
7.4001	1.4058	-1.0534	9.9038
7.4051	-0.3093	0.9876	9.6430
7.4101	0.0808	-0.6359	8.0500
7.4151	0.1143	0.8596	8.8576
7.4201	1.2748	1.0821	10.1838
7.4251	0.7513	0.2399	9.9840
7.4301	0.9404	-0.1220	10.4805
7.4351	1.2778	1.2078	10.5128
7.4401	0.1065	0.9984	8.9096
7.4451	0.3488	0.0431	9.3720
7.4501	1.1623	0.0018	8.9264
7.4551	1.3627	0.8668	11.3210
7.4601	2.0088	0.0784	11.2253
7.4651	1.6056	-0.3320	9.4241
7.4701	0.9870	0.2728	10.2843
7.4751	0.0694	0.1920	10.7712
7.4801	0.5653	-0.1388	10.3992
7.4851	0.9015	0.4187	9.7872
7.4901	0.3870	-0.1496	10.4835
7.4951	0.6646	0.2782	9.5659
7.5001	0.8459	0.1603	9.4025
7.5051	0.9948	0.9565	9.6257
7.5101	0.9631	0.7208	10.1443
7.5151	0.8142	0.5563	9.1011
7.5201	0.1609	-0.7992	9.0939
7.5251	2.1446	-0.8812	7.7037
7.5301	1.3160	1.7850	9.7040
7.5351	-0.0987	0.2483	8.8091
7.5401	1.5087	0.0120	8.3820
7.5451	0.8758	1.9394	9.2404
7.5501	-0.8746	0.3703	9.9134
7.5551	2.3001	-1.4644	9.6227
7.5601	1.3669	2.8247	12.2554
7.5651	-0.4217	-0.2734	10.6576
7.5701	1.2999	0.9565	13.1234
7.5751	1.1820	2.1284	9.1011
7.5801	2.1888	1.1276	7.5015
7.5851	-0.0461	1.1599	9.5814
7.5901	0.5342	0.0407	9.4049
7.5951	0.9834	-0.4403	10.4560
7.6001	-1.4530	2.6351	7.0277
7.6051	0.4068	0.7866	8.4233
7.6101	0.2004	-0.2566	10.7012
7.6151	2.8977	0.2614	5.7380
7.6201	0.7101	2.6279	12.2679
7.6251	-0.8112	-1.4530	11.1613
7.6301	1.9789	-1.0690	8.1978
7.6351	0.2004	1.8054	9.8853
7.6401	-0.4923	-2.8127	9.7417
7.6451	0.6305	-0.7478	10.8771
7.6501	0.0341	1.3621	7.9770
7.6551	0.2333	-1.6122	9.5144
7.6601	-0.4361	-1.0187	5.3258
7.6651	1.2616	0.4487	9.2213
7.6701	0.2710	2.7559	7.8059
7.6751	-0.3332	0.4223	8.4460
7.6801	0.3153	-1.3998	10.0402
7.6851	1.8251	1.3657	12.1345
7.6901	0.4857	-0.5533	11.3515
7.6951	0.6736	1.7121	10.3226
7.7001	0.6443	-0.2297	8.8025
7.7051	-0.0090	0.2441	10.0301
7.7101	0.2704	0.8477	9.0281
7.7151	0.1902	-1.2108	10.8592
7.7201	0.1202	0.1687	10.5122
7.7251	0.6461	1.7061	9.7639
7.7301	1.0696	-1.1408	9.4091
7.7351	0.3799	0.4738	10.6665
7.7401	0.2405	1.0702	8.4640
7.7451	0.4104	-1.8867	8.4562
7.7501	-0.4738	-0.4839	9.4193
7.7551	0.8171	0.6407	8.6219
7.7601	-0.6054	1.5721	8.4717
7.7651	0.0604	-0.3601	9.4378
7.7701	1.5930	-0.5713	6.9918
7.7751	2.4646	0.8925	10.6432
7.7801	0.2381	0.7131	10.6516
7.7851	0.8010	0.2536	11.1026
7.7901	0.0048	1.0750	9.8333
7.7951	0.9972	-0.3099	9.8644
7.8001	0.3452	-0.9924	9.2841
7.8051	0.2004	-0.3350	9.0035
7.8101	1.3627	0.1376	9.0771
7.8151	0.6371	0.7274	7.5074
7.8201	0.8764	0.5671	9.3050
7.8251	-0.6574	1.2622	8.7499
7.8301	1.5541	0.2171	9.2626
7.8351	0.4271	1.8287	10.2346
7.8401	1.2927	-0.8847	10.4536
7.8451	0.6054	-0.1663	9.0287
7.8501	0.8991	1.0570	9.6185
7.8551	1.1832	-0.3200	10.0642
7.8601	-0.2136	1.2096	8.9784
7.8651	2.0865	0.4696	10.0265
7.8701	0.8626	-0.0718	12.1447
7.8751	0.6861	-1.1611	11.4514
7.8801	0.3793	0.7011	10.9351
7.8851	0.9739	0.5426	9.9559
7.8901	0.1244	0.2297	8.9712
7.8951	1.3956	1.3483	9.3146
7.9001	0.5222	1.0666	10.6606
7.9051	0.6993	-1.2473	9.8991
7.9101	0.5593	2.2050	13.0809
7.9151	0.8052	-0.1777	10.3992
7.9201	0.0915	0.5809	9.2877
7.9251	1.1779	-0.0867	8.9216
7.9301	1.4728	0.7053	9.7764
7.9351	0.2273	-0.7041	7.9411
7.9401	0.7406	0.0245	10.1252
7.9451	0.3613	1.6026	11.8444
7.9501	-0.5480	1.0415	11.7008
7.9551	0.0867	0.1944	7.7031
7.9601	1.5009	-0.2369	8.0111
7.9651	0.6048	0.8853	8.6686
7.9701	1.0666	0.0347	9.7932
7.9751	0.3631	0.2931	9.0969
7.9801	-0.0532	-0.7029	10.1084
7.9851	-0.2381	1.1474	10.8747
7.9901	0.7920	-1.0881	11.0434
7.9951	0.6036	-0.0993	10.0019
8.0001	0.1328	-0.4798	9.5892
8.0051	1.4243	0.0987	10.4213
8.0101	0.3159	1.2610	10.7557
8.0151	0.5408	0.0742	8.0584
8.0201	1.0588	0.5360	8.8779
8.0251	0.3583	-0.8118	8.3204
8.0301	0.6275	0.2495	10.7479
8.0351	0.8919	1.1880	11.7056
8.0401	0.7723	1.0253	9.3954
8.0451	1.5649	0.7830	10.7330
8.0501	1.3143	0.0664	10.6965
8.0551	0.6437	-0.2255	9.7782
8.0601	0.2411	0.6658	8.4089
8.0651	0.2668	0.0963	9.5013
8.0701	0.8387	0.5174	10.1940
8.0751	0.2273	1.1803	9.8536
8.0801	1.2060	0.2794	9.7405
8.0851	1.1306	-0.2835	10.0414
8.0901	0.5336	0.3505	8.7631
8.0951	0.5420	0.2255	9.7926
8.1001	0.0598	0.2489	9.4247
8.1051	1.5422	0.8967	9.5665
8.1101	0.8626	0.3601	9.5162
8.1151	1.0492	-0.5378	9.9146
8.1201	0.5067	-0.4959	10.3782
8.1251	0.6455	0.3523	11.5429
8.1301	0.3876	-0.8859	9.5180
8.1351	0.7938	0.9129	10.9609
8.1401	0.4911	0.0538	9.2931
8.1451	-0.8339	-0.4295	9.8901
8.1501	1.9113	0.0586	9.3068
8.1551	0.7597	0.4504	9.7561
8.1601	1.1617	1.0002	10.2221
8.1651	0.6425	0.3440	10.3441
8.1701	1.2000	0.3763	11.0243
8.1751	0.5892	-0.4857	8.7553
8.1801	-0.1753	-0.6156	9.3667
8.1851	1.5559	0.1113	9.7669
8.1901	0.3661	0.4762	9.4785
8.1951	1.0576	-0.1543	8.8247
8.2001	0.9242	2.0596	9.9026
8.2051	1.5212	0.3105	8.3240
8.2101	1.5691	-0.0873	10.1048
8.2151	-0.7609	0.2118	11.1589
8.2201	0.7699	-0.3805	8.8420
8.2251	0.6443	0.4965	10.0821
8.2301	1.0899	-0.1430	9.5306
8.2351	-0.4768	0.7890	8.7080
8.2401	0.5964	-1.3920	8.3575
8.2451	0.1537	0.2064	9.1710
8.2501	0.2680	1.2233	9.4887
8.2551	0.1920	-0.5438	9.2835
8.2601	0.2859	0.9631	8.6877
8.2651	0.8913	-0.3320	9.7387
8.2701	0.7358	1.5446	9.6879
8.2751	1.1485	0.1585	9.0987
8.2801	0.4774	0.4582	9.7818
8.2851	0.8524	-0.2064	10.0157
8.2901	0.8710	-0.1597	11.1242
8.2951	1.0654	-0.2285	10.6654
8.3001	0.8118	-1.1085	8.2283
8.3051	1.1270	0.2572	10.0205
8.3101	-0.3984	0.4235	9.6161
8.3151	-0.7747	0.4445	8.4412
8.3201	0.5474	-0.1591	7.5320
8.3251	-0.1854	1.2981	9.5712
8.3301	1.3310	-0.8500	12.4791
8.3351	0.6766	-0.2668	10.5972
8.3401	1.1276	-0.1872	10.5744
8.3451	-0.4301	0.9015	9.5342
8.3501	0.5127	-0.8255	9.0406
8.3551	1.0929	0.7747	10.3178
8.3601	0.8608	0.7388	8.8014
8.3651	1.6092	0.4857	8.9096
8.3701	-1.3699	0.2841	9.6538
8.3751	1.1174	-0.0832	8.6045
8.3801	0.0927	0.6377	10.7904
8.3851	2.1134	0.8435	10.3920
8.3901	1.8108	0.9123	9.6765
8.3951	0.5372	-0.3015	11.2486
8.4001	0.7292	-0.8626	11.5686
8.4051	-0.0754	0.3553	9.7477
8.4101	0.2441	0.1388	8.5591
8.4151	1.1617	0.2973	9.5796
8.4201	1.0690	1.6385	8.8073
8.4251	0.3308	0.3434	9.6299
8.4301	0.5168	-0.0963	10.8041
8.4351	0.8004	1.8371	8.1942
8.4401	0.3422	0.7992	9.6664
8.4451	0.8465	-0.4092	8.8349
8.4501	0.6927	0.3147	7.9525
8.4551	1.0104	-0.7430	8.6033
8.4601	0.4935	0.8907	10.0444
8.4651	0.8716	0.7669	9.5677
8.4701	1.0223	-0.0185	11.1314
8.4751	1.2215	0.5982	10.0307
8.4801	2.3593	0.1956	7.9405
8.4851	-0.0526	-0.6855	11.6177
8.4901	-0.4935	-0.9482	11.1894
8.4951	0.0383	-0.0144	7.5302
8.5001	-0.9266	-0.3111	11.3168
8.5051	1.7665	-0.3583	8.5794
8.5101	0.9918	-0.1819	7.7288
8.5151	1.4315	-1.2413	10.2436
8.5201	-0.6233	0.4319	10.7054
8.5251	0.0281	-0.7125	7.9872
8.5301	-0.7609	0.1358	8.3772
8.5351	1.2610	-0.5372	6.6424
8.5401	1.4321	2.6070	6.3284
8.5451	0.8040	-0.2052	8.6404
8.5501	0.8764	-1.2819	9.8973
8.5551	1.3567	-0.3470	9.6035
8.5601	-2.0692	0.1143	6.9332
8.5651	2.0913	-0.9188	8.5399
8.5701	1.4112	1.3723	11.5274
8.5751	0.2841	0.2327	7.9190
8.5801	2.3348	0.1292	8.7517
8.5851	0.8177	1.8885	10.3974
8.5901	0.9350	0.5396	7.7718
8.5951	0.7095	-0.6622	9.5581
8.6001	2.1296	2.3384	11.3605
8.6051	0.8004	-0.5115	7.9842
8.6101	0.1777	1.1994	12.1656
8.6151	0.1388	1.1701	8.8755
8.6201	0.7950	-0.2279	8.9689
8.6251	0.3021	1.4231	10.2921
8.6301	0.3482	-1.2843	9.2057
8.6351	1.6624	1.5984	10.3375
8.6401	-0.5342	0.1119	9.5371
8.6451	-0.0317	-1.1988	8.5627
8.6501	-0.1430	0.4708	9.2488
8.6552	1.6319	0.5659	10.0007
8.6602	-0.3051	0.1047	7.6869
8.6652	0.6562	-0.1866	8.9318
8.6702	0.3649	0.5809	12.0352
8.6752	1.2963	-1.7677	10.6480
8.6802	0.2100	0.8040	9.2949
8.6852	0.8088	0.3553	8.5872
8.6902	0.4863	-0.4714	8.2899
8.6952	0.5581	-0.3141	9.2548
8.7002	-0.4223	1.5332	9.2147
8.7052	-0.3954	-1.2712	7.9310
8.7102	0.8034	0.7561	9.5084
8.7152	0.0820	-0.8500	9.0640
8.7202	0.3918	1.4572	9.0855
8.7252	-0.1627	-0.3739	9.8835
8.7302	0.9308	-0.1286	10.2951
8.7352	0.5815	0.5402	10.6875
8.7402	0.5581	0.0772	10.4464
8.7452	1.3747	-0.7567	10.4524
8.7502	1.0935	0.0754	8.6351
8.7552	0.5396	0.8997	9.2626
8.7602	0.9541	0.1095	9.6263
8.7652	0.5587	-0.0281	11.3844
8.7702	0.8016	0.8171	9.6257
8.7752	0.6102	0.3643	9.6723
8.7802	0.8201	0.4929	7.7742
8.7852	1.6373	0.6544	9.1226
8.7902	0.1603	0.8752	9.9439
8.7952	0.2566	0.1280	10.3070
8.8002	0.9571	-0.4804	10.8047
8.8052	0.1143	0.5988	9.7393
8.8102	1.2323	-0.3284	9.6335
8.8152	0.7137	1.8329	9.4695
8.8202	0.7962	-1.2341	8.1146
8.8252	-0.5821	1.5009	9.7770
8.8302	0.2824	-0.1340	9.2757
8.8352	0.5815	0.2064	9.5545
8.8402	1.4596	0.6419	9.5958
8.8452	0.6682	-0.6281	9.7752
8.8502	0.6772	0.2608	9.7387
8.8552	0.7250	0.7783	10.3148
8.8602	-0.3625	0.5635	9.9056
8.8652	1.1521	-0.3398	9.4289
8.8702	0.6610	0.5970	10.0319
8.8752	1.2700	-0.8387	9.1106
8.8802	0.5821	1.1085	10.2346
8.8852	0.0969	0.5815	9.5629
8.8902	1.1934	0.4259	10.5403
8.8952	0.6891	0.4199	9.9128
8.9002	1.3268	0.3302	8.5507
8.9052	0.8500	0.2728	9.5808
8.9102	0.6287	1.1139	9.4869
8.9152	0.0921	0.2465	10.0755
8.9202	-0.0688	1.2843	9.3475
8.9252	1.5918	0.3954	8.7170
8.9302	0.6197	1.2544	10.4494
8.9352	1.4488	0.5486	8.3108
8.9402	0.9870	0.4672	10.0283
8.9452	0.1196	1.4195	9.8356
8.9502	-0.1896	0.8560	9.1017
8.9552	1.2383	-0.1825	9.2207
8.9602	1.1874	0.6395	9.6849
8.9652	1.4052	-0.4235	9.6424
8.9702	1.3860	1.2658	9.8985
8.9752	0.6867	-0.4822	9.4277
8.9802	0.4618	1.3250	10.3130
8.9852	0.8010	-0.3374	9.2362
8.9902	1.3848	0.0323	8.4897
8.9952	0.6233	0.7166	11.2091
9.0002	1.5146	0.8800	10.6588
9.0052	1.2191	-0.1412	10.7868
9.0102	0.1645	0.4810	9.3332
9.0152	1.3023	0.2070	9.5844
9.0202	0.1501	-0.4050	7.9669
9.0252	1.2090	0.1149	9.3026
9.0302	-0.1077	0.3093	9.7351
9.0352	1.1168	1.0110	8.9467
9.0402	-0.3661	-0.2231	11.3832
9.0452	1.7067	-0.8704	8.9808
9.0502	0.7729	-0.5779	9.5342
9.0552	0.4301	-0.5623	8.7152
9.0602	0.9966	0.2327	10.5266
9.0652	0.4469	0.2381	9.7651
9.0702	0.8841	0.5162	10.7437
9.0752	0.7077	1.0110	10.8095
9.0802	0.9487	-0.5139	10.2275
9.0852	1.1587	0.2195	11.0745
9.0902	-0.0281	1.7844	11.4514
9.0952	0.6592	-1.4165	8.2935
9.1002	0.4893	-0.0221	9.3535
9.1052	0.9039	1.6223	10.5499
9.1102	1.1204	0.0467	9.7094
9.1152	0.2979	0.3984	9.1423
9.1202	1.0977	-0.4463	10.2915
9.1252	0.4923	1.9818	9.3194
9.1302	-0.5551	0.1825	8.8941
9.1352	0.8638	0.2453	11.6398
9.1402	2.2343	0.9069	10.6354
9.1452	1.1150	-0.0796	10.9028
9.1502	0.4229	0.1950	9.1154
9.1552	1.0002	-0.2441	9.4462
9.1602	-0.7448	0.9224	8.6291
9.1652	1.5063	-1.0744	7.7916
9.1702	0.8016	2.2815	8.6865
9.1752	1.5685	0.5922	10.4338
9.1802	1.5164	1.6983	10.8705
9.1852	0.9685	1.2951	10.0630
9.1902	0.2040	0.6197	9.0598
9.1952	1.5015	0.7053	8.7385
9.2002	2.2630	-0.0784	10.5948
9.2052	0.6287	-0.9135	8.4227
9.2102	0.8159	1.6546	9.5222
9.2152	1.3047	0.9721	9.9349
9.2202	0.4301	0.0072	9.3786
9.2252	-0.2949	1.3059	9.8440
9.2302	0.7489	0.1902	10.3537
9.2352	1.2000	-0.5001	10.1976
9.2402	0.9410	1.2263	10.8514
9.2452	0.9667	0.7017	9.8452
9.2502	-0.6461	0.5037	8.4071
9.2552	2.2588	-1.2712	10.5320
9.2602	0.7615	0.7065	11.2624
9.2652	0.0760	-0.8100	8.0769
9.2702	0.1633	0.2578	9.3469
9.2752	0.7789	1.0271	9.5766
9.2802	-0.5856	1.0295	9.4313
9.2852	2.3671	-0.2818	8.4275
9.2902	2.2169	1.1001	9.6023
9.2952	-0.4014	-0.0467	9.4953
9.3002	-0.2578	-0.0084	9.5635
9.3052	0.1830	-1.0391	8.4347
9.3102	-1.1156	0.3051	10.0815
9.3152	1.1629	-0.2638	9.7346
9.3202	1.6050	0.3362	8.8522
9.3252	1.3489	0.3667	9.5557
9.3302	0.0909	0.1968	10.8029
9.3352	-0.1460	0.4983	9.7716
9.3402	0.2130	0.2847	10.9184
9.3452	0.7232	0.2213	9.0275
9.3502	1.6445	0.1340	8.9694
9.3552	0.7131	0.3679	9.4271
9.3602	0.4331	0.2447	9.9158
9.3652	-0.1053	0.7280	10.6695
9.3702	-0.0132	-0.6179	11.1774
9.3752	0.0203	-0.0323	8.8031
9.3802	0.2040	0.3027	7.9597
9.3852	0.8142	0.8680	9.0867
9.3902	0.9386	0.8219	7.2729
9.3952	0.9398	-0.1418	8.4933
9.4002	0.9864	0.7813	10.2975
9.4052	0.8644	-0.4403	8.0829
9.4102	0.5749	-0.1603	10.1419
9.4152	-0.3314	0.8614	9.9074
9.4202	0.9894	0.0574	9.3601
9.4252	-0.2040	1.5117	8.9814
9.4302	2.0058	-0.1866	11.2570
9.4352	1.1665	1.6457	9.6323
9.4402	1.2311	-0.1442	8.7708
9.4452	0.8788	0.4152	10.4482
9.4502	0.0413	0.3523	9.4893
9.4552	-0.1717	0.0072	9.6825
9.4602	1.6038	-0.3805	9.9332
9.4652	0.7878	0.0861	8.7780
9.4702	1.2048	0.8656	8.5932
9.4752	0.4313	-0.7896	9.7334
9.4802	0.6090	0.0754	9.5013
9.4852	-0.3147	1.1719	10.1826
9.4902	0.9811	-0.9571	9.8937
9.4952	1.7372	1.5146	8.9677
9.5002	0.9123	-0.4696	11.0679
9.5052	0.0891	-0.3936	10.2155
9.5102	0.9631	1.2239	7.3872
9.5152	-0.8758	0.6233	10.0438
9.5202	-0.4259	-0.0897	8.6757
9.5252	1.1252	0.7819	6.2787
9.5302	1.3448	0.5067	10.9076
9.5352	-0.1729	0.6634	12.2338
9.5402	2.0381	-0.0502	9.5677
9.5452	1.5984	-1.3908	11.6632
9.5502	-0.5019	2.2104	10.1665
9.5552	0.4427	-1.2580	11.2947
9.5602	2.2343	0.6215	8.6680
9.5652	-0.7980	0.0491	8.0751
9.5702	-0.3787	-0.0323	7.0456
9.5752	0.8626	-1.0134	10.3549
9.5802	-1.2490	1.1635	9.2392
9.5852	1.1934	-0.4678	8.9826
9.5902	0.8363	-0.5168	10.3208
9.5952	1.8604	0.5892	10.2741
9.6002	-0.0401	0.4439	10.0414
9.6052	0.9182	-0.5970	8.6243
9.6102	0.3314	1.7312	11.7577
9.6152	0.5360	0.1340	9.7675
9.6202	2.0853	0.1573	10.9686
9.6252	0.2016	1.8915	8.9575
9.6302	0.2764	0.3398	10.1802
9.6352	0.9900	0.0610	9.5024
9.6402	0.2165	1.5272	7.5146
9.6452	0.6688	0.6604	9.7100
9.6502	1.7563	-0.1113	9.9003
9.6552	0.0018	0.5408	9.2913
9.6602	0.8321	-0.2985	8.8857
9.6652	-0.1304	0.9254	7.8688
9.6702	0.9111	2.2762	7.4237
9.6752	1.0128	1.5505	10.0229
9.6802	2.4825	0.3565	7.2394
9.6852	-0.1172	0.4750	9.0442
9.6902	-0.2339	0.4187	10.1682
9.6952	-0.2626	-0.3769	11.0805
9.7002	1.2395	-0.5725	7.0079
9.7052	-0.4128	0.2812	7.5374
9.7102	1.0463	1.4829	9.6478
9.7152	1.1085	-0.9368	8.7966
9.7202	-1.4028	0.8907	6.3027
9.7252	1.3292	-0.4403	12.6149
9.7302	1.1312	2.6859	10.2927
9.7352	1.9968	-0.4702	8.5639
9.7402	0.8488	2.0441	10.7682
9.7452	1.5434	1.0959	9.2709
9.7502	0.0676	0.6341	9.7842
9.7552	1.4482	0.3033	10.9800
9.7602	1.3190	-0.8704	10.5158
9.7652	-0.3906	0.2883	7.9818
9.7702	0.3858	0.3398	8.4933
9.7752	1.1695	1.3513	9.2398
9.7802	-0.5821	1.3412	8.0865
9.7852	1.7695	-0.4002	8.4490
9.7902	0.4337	2.5543	10.6881
9.7952	1.2263	-0.4965	10.9447
9.8002	-1.2586	1.4273	9.1884
9.8052	1.4548	-1.5936	7.8951
9.8102	-1.4435	1.7743	11.4041
9.8152	0.6652	-1.6528	7.4991
9.8202	2.0369	-0.8829	8.6273
9.8252	0.8614	-0.7872	7.9100
9.8302	0.3434	-0.8925	9.9020
9.8352	0.2806	-0.2734	10.4949
9.8402	0.5689	-0.5779	12.3834
9.8452	-0.6975	0.2142	10.3268
9.8502	0.9571	-0.5653	10.9543
9.8552	0.7125	0.3601	8.2851
9.8602	0.8315	-0.0156	7.6947
9.8652	0.2435	0.2704	8.8432
9.8702	0.1807	0.5252	10.5882
9.8752	0.6568	0.2124	8.8289
9.8802	0.5210	-0.1741	10.0881
9.8852	0.8943	-0.2770	9.8913
9.8902	0.0317	1.5655	8.1248
9.8952	0.5623	-0.0167	6.6143
9.9002	0.0754	2.4580	9.7537
9.9052	0.5844	0.1400	8.3712
9.9102	0.3679	0.4080	8.2468
9.9152	1.3663	0.5605	9.7094
9.9202	0.7256	1.8724	10.3028
9.9252	1.1593	0.5336	8.6117
9.9302	1.4913	-1.1282	10.5463
9.9352	1.3442	2.2803	9.2243
9.9402	1.6965	-0.4493	7.5918
9.9452	0.5103	-0.0556	9.8626
9.9502	0.3159	0.3571	9.1932
9.9552	0.1172	0.2662	9.4815
9.9602	-0.8159	0.0849	10.4685
9.9652	0.7489	-0.9386	9.2279
9.9702	1.5715	0.6048	11.4520
9.9752	0.6622	0.1460	11.3479
9.9802	2.0369	-1.1874	10.3453
9.9852	-0.6987	0.7537	8.9156
9.9902	0.3631	0.9476	8.5118
9.9952	0.3488	0.6700	9.4337
10.0002	1.1755	-0.0335	10.4255
10.0052	-0.0921	-1.9543	7.7748
10.0102	0.0748	0.8255	8.7625
10.0152	-0.1908	0.3697	11.8875
10.0202	1.0606	-0.6311	10.3555
10.0252	0.8297	0.0287	9.5575
10.0302	0.6508	1.0445	9.9780
10.0352	0.1687	1.0403	8.8773
10.0402	-1.5721	0.7412	7.6038
10.0452	1.2945	-0.8841	8.8905
10.0502	1.3944	1.1659	10.6971
10.0552	0.8028	-0.6736	11.7074
10.0602	1.1671	-0.1657	9.6197
10.0652	0.8985	0.9900	10.1551
10.0702	-0.8925	0.5838	10.9896
10.0752	0.0425	0.3272	9.2243
10.0802	0.9799	0.2022	9.2004
10.0852	1.8628	-0.0993	10.4584
10.0902	0.7364	0.8674	10.2933
10.0952	0.9840	0.1549	7.8418
10.1002	0.4187	0.5300	7.9675
10.1052	-0.9033	-1.7360	9.5138
10.1102	0.1681	-0.9320	10.3028
10.1152	1.1049	-0.5611	11.9802
10.1202	0.6843	-1.1049	11.0326
10.1252	0.5773	0.7310	8.3551
10.1302	-0.0227	-1.7904	11.0321
10.1352	1.2724	-0.7454	11.0733
10.1402	0.5133	0.8536	8.3036
10.1452	0.8770	0.6592	7.9130
10.1502	0.9212	1.2191	10.7467
10.1552	-0.3039	1.5129	9.4133
10.1602	2.4024	-1.3376	10.3537
10.1652	1.5362	2.8038	10.2233
10.1702	0.5462	0.6873	11.0362
10.1752	-0.8076	-1.0355	10.1653
10.1802	1.6774	0.3888	8.2588
10.1852	0.1035	0.9721	11.0877
10.1902	0.0018	-0.2806	9.9152
10.1952	1.5822	-0.6359	7.9286
10.2002	1.8778	0.4726	9.8344
10.2052	0.6407	0.5821	9.9134
10.2102	1.7091	-0.3547	9.8004
10.2152	-0.9111	-0.3314	9.2147
10.2202	0.0215	-2.4347	9.6556
10.2252	-0.1178	0.9924	10.6007
10.2302	1.6804	-0.7454	11.7164
10.2352	-0.5533	-1.0726	10.5326
10.2402	1.5242	-0.3392	6.9302
10.2452	1.9573	0.8704	10.3525
10.2502	1.8335	0.1268	9.7860
10.2552	-0.2931	-0.5228	11.1056
10.2602	0.0981	0.3111	10.2161
10.2652	0.3170	0.0311	9.6813
10.2702	-1.5081	-0.8823	8.4897
10.2752	0.4020	0.3661	9.9397
10.2802	0.9589	-0.4110	9.7351
10.2852	1.5894	-1.0654	9.9547
10.2902	-0.0317	0.3003	9.6293
10.2952	0.1478	0.9470	11.8378
10.3002	0.8572	-0.8016	8.5034
10.3052	-0.8435	0.8327	9.8171
10.3102	1.7814	-0.7232	8.4717
10.3152	1.6361	1.6122	10.7718
10.3202	-0.3709	-1.3065	7.9489
10.3252	0.5258	0.8548	7.9639
10.3302	0.2584	1.2305	9.7555
10.3352	0.7507	-1.5661	8.4741
10.3402	0.1753	0.7226	9.8015
10.3452	1.7318	-0.1119	9.4277
10.3502	0.7573	0.1083	9.5288
10.3552	-0.1047	-0.1262	7.2837
10.3602	1.8036	-0.0945	9.7782
10.3652	1.2610	3.5085	9.3714
10.3702	0.7065	-1.7623	9.6520
10.3752	-0.1932	0.5049	10.0773
10.3802	0.6873	-0.1819	7.3358
10.3852	1.2179	0.4104	9.3086
10.3902	0.0508	2.0064	9.2572
10.3952	0.7860	0.3655	9.9338
10.4002	0.4379	1.6361	10.5433
10.4052	1.2455	0.3338	9.6077
10.4102	-0.6784	1.2790	9.2303
10.4152	1.7174	-1.1480	9.5353
10.4202	3.0125	1.5045	9.8829
10.4252	1.1785	-0.6120	10.8580
10.4302	0.9631	1.3262	11.5369
10.4352	-0.1107	1.0827	10.1587
10.4402	-0.1274	0.3051	8.9760
10.4452	0.6144	0.2734	10.4925
10.4502	2.4353	1.4973	8.1116
10.4552	1.8149	-0.1089	9.8201
10.4602	-0.1657	0.7944	9.8751
10.4652	0.8195	1.7031	7.5140
10.4702	1.2251	-0.3033	8.0267
10.4752	-1.9986	0.3799	9.9990
10.4802	2.1374	-1.8443	9.3409
10.4852	1.6295	1.5296	11.0015
10.4902	1.2628	-0.3440	9.4684
10.4952	0.3553	1.7629	10.0618
10.5002	-1.2419	1.3346	9.0610
10.5052	-0.3212	0.3428	10.2855
10.5102	0.3984	0.3194	8.6967
10.5152	0.1621	-0.6730	10.5792
10.5202	1.6905	-1.6474	8.7691
10.5252	1.1976	0.4313	9.9302
10.5302	-0.7501	0.1035	12.1866
10.5352	0.1202	-0.4839	10.9489
10.5402	0.2118	1.2825	10.1982
10.5452	1.9029	-0.4463	10.7563
10.5502	0.6784	1.3729	10.9950
10.5552	0.7328	-0.4516	11.2384
10.5602	0.1615	-0.0879	10.2221
10.5652	0.3990	-0.1107	10.5415
10.5702	0.6084	0.2106	9.0544
10.5752	0.1944	-1.2526	9.7734
10.5802	0.7795	0.8273	8.5100
10.5852	0.1585	-0.8136	8.4071
10.5902	0.6371	-0.1268	8.5615
10.5952	0.0132	1.5039	8.2091
10.6002	0.6843	0.2644	9.5994
10.6052	-0.0712	-0.7005	9.2769
10.6102	0.4576	-0.0676	11.2737
10.6152	-0.3565	1.1121	11.8659
10.6202	1.2437	-0.9517	7.6582
10.6252	0.5653	0.1801	8.3467
10.6302	1.6618	0.1555	8.6201
10.6352	-0.5491	0.8536	9.2985
10.6402	-0.0054	-0.6150	8.1493
10.6452	0.5785	0.0275	8.3025
10.6502	1.3214	0.8973	8.2833
10.6552	1.3663	-0.4798	9.4019
10.6602	1.2126	0.3362	11.1649
10.6652	0.3422	0.6658	7.9148
10.6702	1.0056	0.0431	7.1527
10.6752	0.9206	1.1426	9.5880
10.6802	0.5743	1.3483	9.7375
10.6852	0.3278	0.4528	5.9186
10.6902	-0.4307	-0.6730	9.2099
10.6952	-0.1896	1.1545	9.5910
10.7002	0.1364	1.6792	12.0544
10.7052	0.6048	0.4128	10.5320
10.7102	1.2544	0.0975	6.4229
10.7152	2.6973	-1.0169	11.9964
10.7202	1.1294	1.0379	10.2526
10.7252	-0.5360	-0.2955	6.1274
10.7302	1.4901	-1.3250	10.0223
10.7352	1.2185	1.5978	6.5372
10.7402	-0.1819	-0.3775	9.4821
10.7452	-0.0167	1.6881	10.5038
10.7502	2.2971	0.5444	7.6432
10.7552	1.4794	1.2790	12.5060
10.7602	0.5964	-1.6271	9.6831
10.7652	1.2484	1.4237	9.1172
10.7702	1.8161	-0.1561	9.1878
10.7752	0.7214	1.4321	13.1628
10.7802	0.5916	0.2052	8.3742
10.7852	0.9099	-1.2227	7.8652
10.7902	-0.5204	1.8526	11.8636
10.7952	1.5141	1.2018	7.0109
10.8002	0.9912	0.9332	8.7188
10.8052	0.0832	-0.1496	10.2346
10.8102	0.5061	-0.2686	11.2624
10.8152	-0.2028	1.6193	8.5148
10.8202	0.4780	-2.4700	8.8360
10.8252	-0.0138	-0.0592	8.8109
10.8302	1.2604	1.7462	11.7960
10.8352	0.5629	-0.7783	9.4121
10.8402	0.1639	-0.4588	11.0757
10.8452	1.5727	0.5282	12.9672
10.8502	0.2387	-0.6197	11.3688
10.8552	1.6815	-0.4199	8.4723
10.8602	0.3003	0.3882	12.7674
10.8652	0.5904	-2.5902	8.7930
10.8702	-0.5868	0.5737	6.1848
10.8752	2.0895	0.3673	8.0255
10.8802	1.6905	1.3986	11.7894
10.8852	0.9817	-0.4307	13.0139
10.8902	0.6927	-0.9158	8.5854
10.8952	1.0875	-0.1460	5.8229
10.9002	-0.3476	0.3464	10.6031
10.9052	-0.3446	-0.2818	9.0682
10.9102	0.5611	-0.5426	7.8556
10.9152	2.7463	-1.0343	11.0667
10.9202	-0.1065	1.7497	14.3443
10.9252	0.6395	0.6437	10.5840
10.9302	0.4409	0.4020	7.3184
10.9352	1.1868	0.0574	9.1986
10.9402	0.6197	-0.9966	9.0879
10.9452	0.6550	0.9206	11.1978
10.9502	0.4451	0.4792	8.3832
10.9552	-0.1561	0.9302	7.2580
10.9602	1.1551	-0.3817	9.6035
10.9652	1.3023	1.2311	7.2903
10.9702	-0.2608	1.0175	11.1050
10.9752	0.3362	0.7274	8.9240
10.9802	1.7982	1.4530	8.0997
10.9852	1.7491	-0.2327	10.0857
10.9902	0.2770	1.1001	9.5659
10.9952	-0.0497	0.8136	7.6038
11.0002	1.3579	-1.4237	7.3884
11.0052	-0.4624	1.5499	12.7244
11.0102	1.2945	-0.2770	10.1300
11.0152	2.0494	-0.5312	9.7088
11.0202	0.0760	-0.2118	11.1236
11.0252	1.8849	0.3284	9.9786
11.0302	-0.9918	1.2323	12.8141
11.0352	1.2102	-2.7158	8.9150
11.0402	1.4279	0.5695	7.6253
11.0452	0.7944	1.6050	13.7156
11.0502	1.2461	0.3882	10.5996
11.0552	1.7916	1.3639	7.9387
11.0602	1.5996	-0.9499	12.8871
11.0652	0.3942	1.3489	8.7637
11.0702	-0.0873	-0.4199	9.0759
11.0752	-0.2740	-0.7860	9.4737
11.0802	0.2644	0.4367	7.6887
11.0852	2.2522	0.6401	10.2825
11.0902	0.6562	-0.2967	10.0420
11.0952	0.6281	-0.5228	10.8604
11.1002	-0.3117	1.1743	8.8181
11.1052	0.1950	-1.6612	9.1136
11.1102	0.4923	0.6449	11.2588
11.1152	1.0600	0.5252	10.2484
11.1202	-0.3422	-0.7178	11.8492
11.1252	1.8000	-0.2955	9.4731
11.1302	0.2608	0.1244	12.3768
11.1352	-0.1836	-1.4644	10.8394
11.1402	1.1856	-0.7316	8.0434
11.1452	1.6241	0.8949	9.3535
11.1502	0.5414	0.1681	9.8069
11.1552	-0.3284	1.4632	7.8885
11.1602	0.3350	0.4504	9.9553
11.1652	0.7914	0.4816	9.6502
11.1702	1.5464	-0.6449	9.7483
11.1752	0.2213	-0.5497	9.9212
11.1802	1.2640	-0.0867	10.5637
11.1852	0.2255	0.0951	9.1166
11.1902	0.8243	0.0389	9.7184
11.1952	1.5332	0.5533	9.3367
11.2002	-0.1412	0.7531	9.2937
11.2052	0.7783	0.1232	9.7262
11.2102	-0.3033	0.4439	9.7746
11.2152	-0.5910	-0.3667	9.0221
11.2202	0.3984	-0.6820	9.9852
11.2252	2.0770	1.3280	8.8319
11.2302	1.2825	0.9763	9.7675
11.2352	-0.3840	0.0479	11.4029
11.2402	0.8638	-0.9691	8.1356
11.2452	1.2861	0.4271	9.4390
11.2502	1.4405	0.2393	9.7322
11.2552	0.6233	0.7400	9.7758
11.2602	-0.4355	-0.1005	10.2005
11.2652	0.4666	0.2782	10.2915
11.2702	0.3924	0.2124	9.0341
11.2752	0.9870	-0.1825	8.8737
11.2802	1.6510	0.5743	9.7160
11.2852	-0.1352	0.8279	10.4650
11.2902	0.4630	-0.1980	9.4887
11.2952	1.2120	0.3350	10.6187
11.3002	1.2550	-0.6359	8.4191
11.3052	1.4680	-0.2303	10.7162
11.3102	0.1645	0.8381	10.3393
11.3152	1.5254	0.7747	8.2265
11.3202	-0.1083	-0.3290	10.5972
11.3252	0.7836	-0.4642	7.5374
11.3302	0.4050	1.5021	9.6568
11.3352	0.5719	0.3541	9.9822
11.3402	1.5505	-0.3164	8.7637
11.3452	1.0008	1.5715	10.3692
11.3502	1.4979	-0.1747	7.7252
11.3552	0.2913	2.3342	10.6600
11.3602	1.1390	0.2243	10.1736
11.3652	0.7848	0.0658	9.0532
11.3702	2.0291	-1.0409	10.6426
11.3752	0.9966	0.4445	9.5371
11.3802	-0.1501	-0.2477	9.1399
11.3852	0.5354	0.6610	8.2654
11.3902	0.3673	0.4726	10.1593
11.3952	1.0451	0.3176	11.0476
11.4002	1.9735	0.4905	9.0018
11.4052	1.3597	0.2704	8.7385
11.4102	0.6556	-0.4122	10.6384
11.4152	1.1820	0.7125	10.1844
11.4202	0.7184	0.2554	11.5896
11.4252	0.6652	0.5396	9.5252
11.4302	0.6389	1.1055	9.7980
11.4352	-0.2112	0.3942	10.7898
11.4402	1.1539	-0.6640	9.3493
11.4452	0.0203	0.3320	11.3742
11.4502	1.5541	1.9759	11.1858
11.4552	0.0778	0.7884	8.0853
11.4602	0.8477	-0.6138	8.0243
11.4652	-0.0191	1.9974	11.4137
11.4702	0.5964	-1.5876	8.0470
11.4752	1.3585	-1.3765	7.9023
11.4802	0.7525	1.1420	10.9495
11.4852	0.3757	-0.4690	8.1714
11.4902	-0.7609	0.3440	10.2406
11.4952	-0.7262	0.0173	9.0664
11.5002	0.5486	-0.1854	8.5411
11.5052	1.4566	-0.5880	8.6357
11.5102	0.2662	1.2586	9.7322
11.5152	0.7735	-1.0301	10.0354
11.5202	-0.6502	0.4427	8.7720
11.5252	0.2315	-0.3924	9.0544
11.5302	0.3248	0.2608	10.2604
11.5352	0.3218	-0.2154	12.7381
11.5402	0.9374	-0.5515	11.3371
11.5452	-0.2770	-0.4122	13.3483
11.5502	1.3603	-0.0748	10.0845
11.5552	0.5264	0.9164	9.1830
11.5602	-0.6754	0.0341	8.0075
11.5652	0.6221	0.2997	7.6731
11.5702	-1.0175	0.9613	9.9499
11.5752	1.5757	0.1507	8.0159
11.5802	0.0867	-0.4995	9.6221
11.5852	1.3639	0.3595	12.0783
11.5902	1.1055	2.6112	12.4893
11.5952	-0.1262	-0.5761	8.0542
11.6002	0.7436	-1.1551	8.7738
11.6052	1.7767	0.2399	10.6007
11.6102	1.0564	-0.5378	11.3120
11.6152	0.2405	-0.5994	10.2951
11.6202	0.7172	0.2949	11.0650
11.6252	1.7551	-1.1575	5.2726
11.6302	-0.2710	-0.3206	7.9890
11.6352	-1.8132	1.3525	9.0251
11.6402	-0.1436	-1.0223	8.6518
11.6452	0.6479	0.1878	9.6478
11.6502	1.7934	-1.2867	9.6484
11.6552	0.2752	1.1617	12.0113
11.6602	-0.4421	1.1091	11.1481
11.6652	1.1677	-1.6415	11.6745
11.6702	-0.7370	0.6790	11.3629
11.6752	1.6445	-2.5412	10.2879
11.6802	1.1850	0.6520	7.0169
11.6852	0.7687	-0.3260	12.1040
11.6902	-0.6054	1.5799	10.4691
11.6952	-0.7519	-0.0030	12.3553
11.7002	1.4136	-1.6205	6.4193
11.7052	1.6612	-0.8399	10.3034
11.7102	0.5354	-2.1404	9.4301
11.7152	1.6277	1.8461	11.1320
11.7202	0.0927	0.2411	11.4879
11.7252	0.9888	-0.6867	9.7710
11.7302	1.8072	0.8219	10.8681
11.7352	-0.8883	-0.5970	9.1669
11.7402	0.4415	0.4229	8.4305
11.7452	0.5821	1.4171	9.3098
11.7502	2.3701	-0.9511	7.3824
11.7552	2.3491	-0.4008	8.7254
11.7602	-1.5996	2.0877	12.7501
11.7652	0.5934	-1.3172	10.1898
11.7702	0.9840	0.4175	11.8301
11.7752	1.3418	-2.8229	8.6901
11.7802	0.5186	0.7376	8.1092
11.7852	2.3755	-0.3787	10.1521
11.7902	0.9703	0.6736	9.6987
11.7952	1.0146	0.9266	10.5774
11.8002	0.7795	-0.4313	6.9152
11.8052	-0.2895	-0.5324	8.3772
11.8102	0.5145	0.2602	10.3615
11.8152	0.8076	0.2381	10.3680
11.8202	-0.2165	1.7880	9.7292
11.8252	1.1982	-0.6084	8.9778
11.8302	0.7609	0.9296	10.5367
11.8352	0.1747	0.6161	11.0967
11.8402	1.2831	-0.2309	8.7391
11.8452	-0.2853	0.6514	10.2323
11.8502	0.6802	-1.0427	9.0161
11.8552	0.8859	1.4979	9.8207
11.8602	1.4231	-0.4475	10.8155
11.8652	1.1294	0.0598	9.9224
11.8702	0.7286	0.6550	9.6646
11.8752	1.2766	0.3655	8.4903
11.8802	-0.8429	0.7125	8.6572
11.8852	0.6335	0.3320	9.8225
11.8902	1.5739	-0.2363	7.8993
11.8952	1.2102	0.1783	9.6652
11.9002	0.5133	1.3322	9.1734
11.9052	-0.0837	1.0887	8.5663
11.9102	1.3513	0.3984	8.5136
11.9152	1.3777	0.0790	10.0624
11.9202	-0.8112	0.6425	10.5475
11.9252	1.6881	0.0185	8.0488
11.9302	0.7627	1.1306	9.6981
11.9352	1.0355	-1.5081	10.0953
11.9402	0.7549	0.7011	11.2624
11.9452	0.3135	0.1280	8.1128
11.9502	0.3637	-0.7059	7.3986
11.9552	-0.9410	0.8285	10.6809
11.9602	0.8764	-0.0185	10.9890
11.9652	1.0552	0.2483	8.7176
11.9702	0.8572	-0.1537	11.8534
11.9752	1.8359	0.3547	10.7461
11.9802	0.9930	-0.6257	9.3619
11.9852	1.3352	0.6461	10.6522
11.9902	0.3882	-1.1761	11.2402
11.9952	-0.3182	-1.1186	9.8847
12.0002	2.0626	0.7878	8.9910
12.0052	-0.4415	0.4044	11.3018
12.0102	0.9900	-0.3464	8.7852
12.0152	0.6712	1.0253	10.2263
12.0202	0.7944	-0.7507	9.4678
12.0252	1.3495	0.8441	8.8085
12.0302	0.0975	1.2000	10.1336
12.0352	0.8764	-0.3434	9.2494
12.0402	0.1681	0.5127	9.8847
12.0452	-0.0437	-0.1322	9.5150
12.0502	0.9224	0.4044	8.2355
12.0552	0.5928	0.5641	12.1268
12.0602	1.7450	0.4798	8.2307
12.0652	-0.9673	0.0377	9.3248
12.0702	1.3148	-0.9972	11.9952
12.0752	0.7131	3.2919	9.6705
12.0802	0.3392	-1.5649	9.5455
12.0852	0.7711	0.3033	11.3653
12.0902	-0.9392	-0.1669	9.8632
12.0952	1.1701	-1.2167	7.1647
12.1002	0.7920	0.7472	7.1730
12.1052	0.9936	0.5695	8.7768
12.1102	1.4357	0.7268	12.5084
12.1152	0.2213	0.6245	10.9441
12.1202	0.8530	-0.5486	11.2139
12.1252	0.5976	0.5324	10.4111
12.1302	0.9739	0.5785	9.0077
12.1352	1.3041	-1.4722	10.4315
12.1402	2.3856	1.3687	9.9009
12.1452	1.3065	2.2092	7.7204
12.1502	-1.1067	0.7663	7.0079
12.1552	0.4833	-0.5701	7.7031
12.1602	1.2227	1.7940	9.8129
12.1652	1.4710	1.5093	11.0955
12.1702	0.8698	0.7531	11.6093
12.1752	0.1765	0.5091	8.5244
12.1802	1.5081	-2.1924	9.5365
12.1852	0.4905	0.1436	11.5997
12.1902	1.5799	-0.1011	10.6049
12.1952	0.5432	0.7274	8.0291
12.2002	-0.2704	0.9870	6.5569
12.2052	1.2813	0.2165	10.3232
12.2102	0.4247	-1.0217	12.2344
12.2152	0.6849	-0.5844	9.9936
12.2202	0.7238	-1.5493	11.7331
12.2252	1.0486	-0.2871	11.9802
12.2302	1.0887	-0.8010	13.7742
12.2352	1.4584	-1.3448	9.8644
12.2402	-1.4530	0.6700	6.0412
12.2452	1.2796	-1.2718	7.1174
12.2502	1.8796	2.4329	9.2458
12.2552	0.5605	-0.3679	10.0366
12.2602	0.4265	-0.0347	12.0005
12.2652	-0.4044	-2.3252	10.9716
12.2702	1.6205	0.2417	11.9485
12.2752	1.1497	0.3410	11.5722
12.2802	1.1396	0.7005	8.7924
12.2852	1.6403	-0.0377	6.9816
12.2902	-0.0951	0.6167	10.7258
12.2952	0.7107	-0.0108	9.2536
12.3002	0.4941	-0.3428	11.6201
12.3052	1.5601	3.1436	10.9986
12.3102	0.1819	0.7005	10.3465
12.3152	-0.2088	1.4453	8.9096
12.3202	2.4179	-0.4983	9.3954
12.3252	-0.7495	0.7436	14.6787
12.3302	1.1240	-0.4995	10.6618
12.3352	1.3597	0.9924	8.5938
12.3402	-0.3529	0.5432	10.3704
12.3452	1.6809	0.6586	8.3461
12.3502	0.9194	2.6805	10.0618
12.3552	0.6311	-1.1803	5.6440
12.3602	0.5312	0.0568	6.8309
12.3652	0.4325	1.6020	9.0807
12.3702	0.7896	-0.0096	10.6695
12.3752	-0.3075	0.2889	11.9347
12.3802	1.1797	-0.9805	9.8554
12.3852	0.3942	0.8040	10.0462
12.3902	0.6897	0.7292	9.8560
12.3952	0.7525	0.1418	9.6586
12.4002	0.6897	2.4718	9.9678
12.4052	1.5045	-0.3876	5.5866
12.4102	-1.5900	1.3346	7.2496
12.4152	-0.1645	0.7621	8.1397
12.4202	1.2155	2.0722	9.3344
12.4252	-0.5916	-0.5767	11.4992
12.4302	0.9583	-0.3105	11.0650
12.4352	-0.3733	2.3390	11.7421
12.4402	1.1354	-1.0821	9.6406
12.4452	0.5976	0.7561	11.4992
12.4502	0.6802	0.8159	8.7691
12.4552	0.5097	-0.2710	7.5756
12.4602	-0.4056	0.0915	9.4576
12.4652	-0.6897	0.1011	12.2458
12.4702	0.4457	0.4325	10.3752
12.4752	0.8967	-1.4913	13.4207
12.4802	1.5649	-1.4010	10.5224
12.4852	-0.2835	0.8943	6.1627
12.4902	1.5176	0.0066	8.9904
12.4952	0.7699	0.2542	9.9816
12.5002	0.1735	-0.6150	8.9569
12.5052	0.5043	0.8572	11.1852
12.5102	0.3386	-0.1490	8.7655
12.5152	1.9896	-0.1400	8.5100
12.5202	1.0612	0.6449	11.7445
12.5252	1.1689	1.0098	9.5186
12.5302	1.0792	-0.8046	10.4895
12.5352	-0.3338	1.0923	10.9262
12.5402	1.9358	1.7210	8.7756
12.5452	0.3320	-0.7531	10.9531
12.5502	2.7894	1.6696	8.5788
12.5552	1.4656	2.3515	10.5092
12.5602	0.0556	0.1131	8.6817
12.5652	1.1587	0.1765	11.1541
12.5702	0.4068	0.3344	10.9740
12.5752	2.3085	-0.1232	13.0049
12.5802	-0.2967	2.8965	9.4857
12.5852	-1.7055	0.2267	4.5739
12.5902	0.3685	-0.9212	6.1298
12.5952	1.9083	4.0576	9.4450
12.6002	2.0375	-1.2939	9.8889
12.6052	0.2285	0.4403	10.0289
12.6102	1.0714	-0.5677	12.4414
12.6152	-0.1394	-0.2165	10.2933
12.6202	0.4397	1.6235	8.9982
12.6252	1.7037	-0.6778	8.1164
12.6302	1.0588	1.9131	8.9019
12.6352	0.8632	0.9547	9.6323
12.6402	-0.3840	0.2602	8.0602
12.6452	-0.7376	0.8189	9.0293
12.6502	2.1146	0.0706	10.2717
12.6552	-0.7507	1.9615	14.0948
12.6602	0.7448	-2.3874	6.4869
12.6652	-0.1107	0.1735	8.9371
12.6702	1.7228	-1.5428	7.8532
12.6752	0.4582	1.7324	12.2027
12.6802	0.9380	-1.8580	12.4612
12.6852	0.2518	-0.4487	8.9336
12.6902	1.2072	0.6592	7.2371
12.6952	0.6179	0.8064	9.4121
12.7002	0.6951	-0.3589	10.7054
12.7052	0.5671	0.6993	10.4219
12.7102	1.4823	0.0461	10.5242
12.7152	1.5481	0.7705	10.8789
12.7202	-0.2692	-0.4277	10.6648
12.7252	0.6891	-1.4931	10.0002
12.7302	0.3302	1.4064	7.2616
12.7352	1.6905	-0.0879	7.3555
12.7402	0.4265	1.6756	11.2450
12.7452	1.1892	0.9410	8.5740
12.7502	0.0772	3.0837	8.6757
12.7552	0.4313	0.1256	9.6083
12.7602	0.9380	0.3517	10.8251
12.7652	1.7952	-2.9360	11.3993
12.7702	0.7460	1.7216	9.9254
12.7752	0.0580	-1.4776	12.3176
12.7802	0.8016	2.0506	8.8468
12.7852	0.7980	0.7663	9.1005
12.7902	1.1031	-0.6437	6.0371
12.7952	-0.1256	0.7753	10.1479
12.8002	-1.1916	-0.0239	5.9348
12.8052	2.6112	-2.4389	10.0773
12.8102	0.3775	2.0901	9.0012
12.8152	0.1848	-0.7699	10.7054
12.8202	0.6616	1.5302	8.3868
12.8252	-0.1968	1.6229	8.9222
12.8302	0.5677	1.3669	9.8452
12.8352	0.8148	0.5396	12.9313
12.8402	1.0032	-1.6038	8.7445
12.8452	0.1382	0.3248	11.0171
12.8502	0.5103	-1.6492	10.4512
12.8552	0.4247	0.4833	13.1646
12.8602	-1.4423	0.0784	6.6807
12.8652	1.1480	0.9350	9.2739
12.8702	1.4088	2.3360	9.9511
12.8752	2.3946	0.7137	7.9537
12.8802	-0.2154	1.2742	10.5523
12.8852	0.2752	-4.0121	9.4301
12.8902	0.9900	0.9440	12.9965
12.8952	1.7061	1.1426	11.9234
12.9002	0.9888	2.3545	8.9413
12.9052	1.2078	0.2650	7.4745
12.9102	2.0811	0.4451	10.5098
12.9152	-0.7968	1.2484	13.6540
12.9202	0.6730	-2.2355	9.2578
12.9252	1.6080	2.4658	10.4620
12.9302	-0.1567	1.0510	10.1796
12.9352	0.2698	-2.2427	6.8554
12.9402	0.9649	1.3932	5.8899
12.9452	1.2395	1.4656	9.8177
12.9502	1.6845	2.0183	9.8596
12.9552	-0.4714	2.4072	7.3776
12.9602	1.5230	-1.0361	14.3383
12.9652	-0.3817	-1.1611	13.3997
12.9702	1.9298	-2.0088	7.6803
12.9752	-1.0403	-0.3960	5.2869
12.9802	1.3250	1.1450	10.2167
12.9852	0.9326	0.8177	9.7435
12.9902	0.6365	1.7665	9.0735
12.9952	0.0903	1.5691	7.2670
13.0002	1.3220	0.6700	10.8023
13.0052	0.3350	0.5539	10.6845
13.0102	2.2857	1.4297	12.1112
13.0152	-1.0151	0.1926	9.7334
13.0202	1.2269	-0.9170	6.3559
13.0253	-0.2273	2.2409	7.1372
13.0303	2.8941	0.3212	8.7792
13.0353	0.4349	1.3472	12.4875
13.0403	-0.6927	-0.9715	13.5876
13.0453	1.0343	-0.3434	12.2201
13.0503	0.5737	0.3858	9.3625
13.0553	1.6636	-1.2263	7.7102
13.0603	0.7083	1.8431	9.7758
13.0653	1.4441	-0.9129	8.5142
13.0703	0.8961	1.1300	12.2129
13.0753	1.5697	-0.0419	11.0087
13.0803	1.2401	0.6586	11.3138
13.0853	-0.0281	0.0000	11.3539
13.0903	1.2819	0.2949	7.6199
13.0953	0.6329	-0.0203	10.2418
13.1003	0.4373	0.4845	7.1324
13.1053	0.7926	-0.5121	9.0023
13.1103	0.5121	1.5045	11.5214
13.1153	1.3214	0.5354	9.3888
13.1203	-0.9368	2.0853	9.5300
13.1253	1.9645	-0.5109	7.8729
13.1303	1.2867	1.0163	8.6781
13.1353	0.9876	-0.5545	7.8837
13.1403	1.0594	1.7743	9.6610
13.1453	0.1077	0.9117	8.8743
13.1503	1.3268	0.2195	10.0307
13.1553	0.2399	1.5487	10.3453
13.1603	1.4435	0.3870	9.2662
13.1653	0.4439	-1.0080	10.5092
13.1703	0.7974	-0.1035	9.3732
13.1753	1.2066	1.3735	10.1216
13.1803	-0.5569	-0.4552	10.0630
13.1853	1.2873	-1.0875	9.7860
13.1903	0.2094	1.2790	10.1270
13.1953	1.6977	-0.1585	8.4825
13.2003	0.1531	-1.0247	10.1928
13.2053	1.1414	0.9655	11.7451
13.2103	0.1430	-1.4381	12.6065
13.2153	0.5426	2.2696	8.7607
13.2203	0.7926	-1.7462	10.8460
13.2253	0.4624	-0.4217	11.2271
13.2303	1.1468	1.5948	12.0544
13.2353	0.8441	-1.5577	10.5607
13.2403	-0.0724	0.5049	9.3996
13.2453	1.6349	0.5761	8.4795
13.2503	1.4351	2.5687	10.7198
13.2553	0.3314	0.2668	9.8913
13.2603	-0.0377	0.5330	10.2293
13.2653	0.7944	-1.5003	9.6400
13.2703	1.5733	1.0217	9.8010
13.2753	1.4471	1.6714	7.5882
13.2803	0.1830	1.1743	7.0552
13.2853	1.6002	-0.3308	8.8079
13.2903	1.0313	1.1145	8.2881
13.2953	0.1513	0.1693	9.5934
13.3003	0.4995	-1.0558	8.6572
13.3053	-0.2321	0.2261	9.5808
13.3103	0.9266	-0.5127	8.3808
13.3153	0.2788	0.6861	9.1657
13.3203	0.8758	0.3667	9.4803
13.3253	0.6766	0.2195	11.0075
13.3303	1.0175	-0.8183	10.5702
13.3353	1.9824	-1.0319	11.3222
13.3403	0.0329	-0.5862	10.4261
13.3453	0.4995	0.1340	7.6014
13.3503	0.0658	0.9158	8.7870
13.3553	0.4445	-0.9828	10.1228
13.3603	0.7316	1.0050	10.3202
13.3653	1.4746	0.3075	11.2558
13.3703	1.9986	0.2160	9.5748
13.3753	0.3547	1.0660	10.6127
13.3803	1.7186	-0.1113	9.4857
13.3853	0.1328	0.4319	7.7162
13.3903	0.8620	0.2447	10.8053
13.3953	1.1683	1.6941	9.9373
13.4003	1.1145	0.2100	10.0073
13.4053	2.0004	-0.4373	10.9411
13.4103	-0.2483	1.8455	9.8560
13.4153	0.2052	-0.4684	10.4213
13.4203	-0.0048	0.9529	9.2362
13.4253	1.0630	0.1388	11.0620
13.4303	0.7633	-1.0463	8.9784
13.4353	1.6642	0.8273	9.3613
13.4403	-0.3828	0.2877	11.1242
13.4453	0.7651	-0.9434	7.6235
13.4503	0.7454	1.4118	8.0291
13.4553	0.8632	-0.0443	9.7268
13.4603	1.1133	-0.3763	11.5501
13.4653	0.0341	-1.0032	11.5028
13.4703	1.1695	1.1749	9.5796
13.4753	-0.2411	-0.9715	8.7074
13.4803	2.1093	-0.5545	9.0664
13.4853	0.1178	-0.6287	10.3716
13.4903	0.9649	-0.6042	9.6155
13.4953	1.7192	-0.8016	10.5894
13.5003	1.4291	-1.4668	11.5627
13.5053	-0.1543	0.2231	11.8791
13.5103	0.0419	-0.0772	9.1256
13.5153	1.2568	0.6538	9.3828
13.5203	-0.0640	0.8530	9.6053
13.5253	1.9136	-1.7701	10.5858
13.5303	1.5775	0.1974	9.6293
13.5353	0.3559	-1.3812	11.8797
13.5403	2.1559	1.9442	11.8289
13.5453	-0.0790	2.1087	8.6249
13.5503	1.0702	-0.6891	7.6343
13.5553	0.4044	0.8734	7.8388
13.5603	0.8734	-0.3739	6.0915
13.5653	0.8758	-0.4199	10.1659
13.5703	-0.6030	1.4889	9.7956
13.5753	0.8680	0.2560	10.5834
13.5803	0.0975	1.0528	8.3371
13.5853	1.0415	-0.0736	10.2173
13.5903	1.2233	0.4475	11.3425
13.5953	2.5083	-0.0299	8.7696
13.6003	0.0048	1.2957	10.3788
13.6053	-0.2961	-0.3278	10.1557
13.6103	1.2425	0.5803	7.9998
13.6153	0.6275	-1.6349	7.6444
13.6203	1.7785	0.0915	9.4989
13.6253	-0.3954	-0.8716	10.1551
13.6303	0.6096	-0.4229	12.4372
13.6353	0.5832	0.4205	10.2604
13.6403	-0.1370	0.1005	9.8015
13.6453	2.0273	-0.4768	7.9938
13.6503	-0.5474	2.2684	7.9112
13.6553	1.7791	0.2859	7.5045
13.6603	-0.0329	1.4363	10.1539
13.6653	-0.2100	0.0329	8.7356
13.6703	0.4845	0.9129	9.8596
13.6753	0.4768	1.0624	10.3178
13.6803	1.3914	-0.6616	10.3112
13.6853	1.6373	0.5641	9.6269
13.6903	0.3996	-1.4656	9.3391
13.6953	0.8973	-0.5731	8.6087
13.7003	0.6610	1.6851	10.5218
13.7053	1.0277	0.6562	11.2648
13.7103	-0.0096	-0.8841	8.9647
13.7153	1.6804	0.5324	10.5361
13.7203	-0.2542	0.2644	9.5258
13.7253	1.6199	-0.7053	8.8175
13.7303	-0.2381	1.0086	10.3938
13.7353	0.9499	-1.2903	10.7102
13.7403	-1.1306	-0.0150	8.9383
13.7453	1.2096	-0.3763	8.5166
13.7503	1.1121	1.0241	12.0382
13.7553	0.8602	-0.1268	9.2614
13.7603	0.8943	-0.0132	9.4241
13.7653	0.9613	1.0995	9.3403
13.7703	0.2931	-0.3817	9.7070
13.7753	-0.3446	0.7029	11.7032
13.7803	1.3603	-0.0491	10.4321
13.7853	0.8399	0.3344	11.2701
13.7903	0.8321	-0.7250	9.0113
13.7953	1.4620	0.9595	9.0676
13.8003	1.2568	1.7563	10.0588
13.8053	1.6181	-1.2287	10.1336
13.8103	0.5749	1.4231	9.2560
13.8153	0.2285	0.9613	11.1954
13.8203	0.6526	-0.2165	8.8666
13.8253	0.6831	0.0209	8.9880
13.8303	1.9035	0.8770	9.5168
13.8353	0.4439	-0.0359	8.6428
13.8403	0.3003	-0.0323	10.0337
13.8453	0.7478	1.7384	9.5557
13.8503	0.6090	-0.4504	9.2016
13.8553	0.2752	0.7735	10.0666
13.8603	0.9027	1.0612	10.7647
13.8653	0.2752	-0.1681	9.2787
13.8703	-0.0712	0.0706	9.9750
13.8753	0.4965	-1.6815	10.9327
13.8803	0.5174	0.9757	9.3140
13.8853	1.1222	-1.0481	9.2763
13.8903	0.3577	1.3232	11.7427
13.8953	-0.4528	0.0514	10.7599
13.9003	-0.3966	-0.7059	10.7706
13.9053	1.6014	-0.3332	8.2444
13.9103	1.6756	-0.6132	9.6604
13.9153	1.1928	1.2484	9.4935
13.9203	0.4798	0.2913	10.2293
13.9253	-0.0018	1.7844	9.3924
13.9303	-0.1149	-0.2052	8.8528
13.9353	0.0108	-0.3248	9.7866
13.9403	1.0289	-0.8596	10.2185
13.9453	1.1127	0.2680	9.7830
13.9503	1.5152	1.0965	8.1391
13.9553	0.1531	0.6036	9.4929
13.9603	0.7711	1.2879	10.2209
13.9653	1.1892	0.9924	10.1970
13.9703	-0.1711	-0.8040	9.2045
13.9753	0.5665	-0.3846	8.7122
13.9803	-0.0640	0.8148	10.8376
13.9853	1.6935	-0.3188	8.8917
13.9903	-0.1645	1.8173	9.5479
13.9953	0.8010	0.1298	8.9629
14.0003	-0.3063	0.6532	10.8047
14.0053	0.9164	-0.9440	9.3601
14.0103	1.0241	0.4953	11.0267
14.0153	0.5791	-0.8542	9.3236
14.0203	1.0971	-0.9206	9.4857
14.0253	-1.2120	1.2778	9.4085
14.0303	2.1900	-0.1161	9.7621
14.0353	0.8728	1.4788	8.0686
14.0403	0.7166	-1.0277	9.6083
14.0453	1.6427	1.0833	9.4707
14.0503	0.1986	0.0772	11.1212
14.0553	1.0869	-0.7944	9.0783
14.0603	0.4169	1.9166	9.7196
14.0653	0.3248	-0.1549	9.2231
14.0703	1.0504	0.3978	10.2472
14.0753	-0.3697	0.3589	7.4428
14.0803	0.6532	-0.5671	8.1403
14.0853	0.1328	1.5499	10.2831
14.0903	2.2110	-0.8931	11.1218
14.0953	0.1681	0.3176	9.7393
14.1003	1.2179	-2.0369	12.3014
14.1053	0.5773	0.0299	11.4807
14.1103	0.8088	1.4943	9.5138
14.1153	1.0774	-0.6209	8.4496
14.1203	0.3697	0.5707	12.7004
14.1253	0.1591	-0.1615	8.6913
14.1303	-0.0670	-1.0421	10.0689
14.1353	0.3942	1.3717	7.8293
14.1403	1.4363	0.3254	10.4973
14.1453	1.5362	1.3537	11.7666
14.1503	0.8088	-1.5170	8.1930
14.1553	0.4953	0.9356	9.7453
14.1603	0.9242	1.5978	9.5407
14.1653	-0.3787	1.1892	9.9361
14.1703	0.5192	-1.3920	8.2067
14.1753	0.4648	2.1212	9.5007
14.1803	0.5264	-0.2961	7.1760
14.1853	0.1029	0.2411	8.3958
14.1903	2.5017	0.7184	9.9421
14.1953	0.5797	-0.7166	13.3842
14.2003	1.5027	-0.8267	10.2143
14.2053	0.2560	0.0251	9.1501
14.2103	0.4780	0.7902	12.7393
14.2153	-0.1310	-0.6993	11.9724
14.2203	0.1256	2.1661	11.6955
14.2253	2.1266	1.0827	8.4101
14.2303	-0.5713	0.1753	8.4795
14.2353	-0.1926	-0.2387	8.6644
14.2403	0.2506	0.0132	7.3405
14.2453	0.4887	-0.7801	10.2466
14.2503	1.1898	0.5737	8.3449
14.2553	0.3811	-0.2465	9.9535
14.2603	2.5675	-1.2520	9.6191
14.2653	0.3571	2.8971	9.7686
14.2703	0.5174	-1.4279	7.4590
14.2753	0.0018	1.9765	10.8442
14.2803	-0.9840	0.2674	9.8015
14.2853	1.4853	-1.7605	7.2191
14.2903	0.5647	1.8502	7.9657
14.2953	1.5511	-0.4959	9.2249
14.3003	0.6490	0.9188	10.0797
14.3053	1.2861	-0.9535	8.7164
14.3103	0.8441	0.9942	10.3627
14.3153	1.2921	1.3101	10.2586
14.3203	-0.2889	-0.0544	9.5162
14.3253	1.3298	0.6120	9.6526
14.3303	0.9852	0.2662	9.8733
14.3353	1.2365	0.8309	8.3264
14.3403	0.6000	-0.2058	9.7806
14.3453	1.2927	0.2782	9.9134
14.3503	1.2108	0.1884	11.6811
14.3553	1.3920	0.8686	9.8638
14.3603	0.6562	-0.3858	9.6233
14.3653	-0.4540	0.1095	9.0281
14.3703	1.5344	-0.3404	10.4374
14.3753	-0.4289	-1.5075	12.4588
14.3803	1.0618	-0.0347	12.4235
14.3853	-0.1107	-0.1059	9.8709
14.3903	0.4074	0.0664	12.1884
14.3953	0.9751	2.3653	10.1665
14.4003	0.2548	-0.1065	10.7838
14.4053	1.4225	-1.0020	6.9224
14.4103	0.2530	0.2835	9.2177
14.4153	1.4554	0.4289	12.2051
14.4203	0.4175	1.4937	10.0552
14.4253	-0.3093	0.6586	8.4311
14.4303	1.3507	1.9370	8.7068
14.4353	0.0939	-0.4672	10.4141
14.4403	0.9918	-0.1771	9.8841
14.4453	0.4792	0.4941	7.7126
14.4503	0.0718	0.3966	8.4353
14.4553	1.5703	0.3027	9.1411
14.4603	0.1352	0.5527	9.9445
14.4653	1.0600	-0.5145	11.2157
14.4703	1.1378	0.4086	10.0145
14.4753	-0.3703	0.4630	9.1782
14.4803	0.3583	0.7280	9.9242
14.4853	0.2327	0.3302	7.8365
14.4903	0.5587	0.2429	8.2588
14.4953	1.3089	2.8714	10.7629
14.5003	0.4702	-1.2754	8.9712
14.5053	1.6134	0.4451	10.1198
14.5103	1.0253	0.2746	8.1427
14.5153	0.9458	-0.1795	8.8845
14.5203	-0.8309	0.9655	7.8083
14.5253	0.0861	0.7783	7.4602
14.5303	1.5206	0.5204	11.0996
14.5353	1.0564	1.0768	13.2939
14.5403	1.3107	1.1719	12.9487
14.5453	-0.6341	0.3529	7.3310
14.5503	1.0881	-2.6829	6.5976
14.5553	0.4522	1.2395	10.1928
14.5603	0.8363	1.1922	11.4370
14.5653	1.4052	-0.5533	8.0434
14.5703	2.2050	2.4371	10.8532
14.5753	1.3214	0.1854	13.1778
14.5803	-0.5139	-1.0391	15.1202
14.5853	2.9527	-0.5444	9.1728
14.5903	-1.0798	0.2782	7.8873
14.5953	0.0832	-1.6486	10.0079
14.6003	0.9613	2.2534	10.1868
14.6053	0.8435	-0.3667	11.4251
14.6103	-0.0138	0.4146	9.0484
14.6153	1.7659	-0.2124	12.7710
14.6203	0.1394	0.6311	10.3854
14.6253	-0.1352	0.2112	8.9324
14.6303	0.1633	0.4283	10.4943
14.6353	0.3440	0.6496	11.1373
14.6403	-0.6598	1.0606	9.9565
14.6453	1.5541	-1.0463	8.6793
14.6503	0.7932	2.1314	8.8109
14.6553	0.1376	-1.5141	8.9180
14.6603	0.9858	2.2014	9.7005
14.6653	0.4080	-0.8979	11.8145
14.6703	1.2275	-1.5272	8.3270
14.6753	0.6688	1.8042	8.1762
14.6803	1.1701	-0.3858	7.8580
14.6853	1.3866	2.9515	10.1413
14.6903	1.1150	-0.5157	11.6326
14.6953	0.3278	1.0528	9.9475
14.7003	1.6235	0.1633	10.9621
14.7053	-0.2130	0.8626	10.9310
14.7103	1.2502	-0.6293	7.6833
14.7153	-0.2650	2.2911	9.0239
14.7203	2.4622	-1.5440	7.6654
14.7253	0.9009	2.8540	10.5912
14.7303	-0.0437	0.3087	8.2995
14.7353	0.9727	0.8333	10.5487
14.7403	-0.6718	-0.0772	6.2111
14.7453	0.4193	-0.3942	9.8344
14.7503	-0.1795	1.7043	9.4043
14.7553	1.6911	-0.6323	10.2634
14.7603	0.2339	-0.2429	12.1345
14.7653	1.2263	-0.6652	8.4741
14.7703	1.2329	-0.1675	10.3549
14.7753	-0.2183	-0.4983	8.0584
14.7803	1.4195	1.5093	10.0833
14.7853	1.3597	-0.0167	10.2484
14.7903	0.4953	0.8572	10.3052
14.7953	0.4211	0.5509	11.8665
14.8003	0.1137	-1.6516	9.7513
14.8053	1.6187	0.9577	6.9535
14.8103	-0.8459	-2.6961	8.9820
14.8153	1.9908	0.9464	7.4614
14.8203	-0.3607	0.3045	6.0963
14.8253	-0.1585	0.5737	6.4528
14.8303	-0.7059	0.0808	8.4101
14.8353	1.5326	-1.6044	11.6649
14.8403	2.0776	0.5934	9.9194
14.8453	-0.5162	0.3858	8.7254
14.8503	2.4730	-0.4493	6.2638
14.8553	-0.6371	1.1737	7.0026
14.8603	1.3531	0.0455	8.5238
14.8653	0.1268	2.3252	9.2482
14.8703	-0.9314	-0.2668	6.9595
14.8753	1.9298	1.5398	6.9397
14.8803	-0.8806	-0.5850	13.3561
14.8853	1.0971	0.6000	13.0594
14.8903	1.2179	1.3741	9.9541
14.8953	2.3091	1.5182	11.8151
14.9003	-0.6730	-0.0108	8.6039
14.9053	1.4578	-1.3525	8.8630
14.9103	1.4465	-0.1830	12.6921
14.9153	0.5952	-1.1049	9.3523
14.9203	1.9131	2.1398	13.9148
14.9253	1.0851	0.6915	9.1363
14.9303	0.3338	1.9747	8.8606
14.9353	-1.1599	-0.7250	7.6959
14.9403	1.6385	1.7832	7.9675
14.9453	1.5727	-0.4983	14.3024
14.9503	-0.6921	0.9900	11.0991
14.9553	1.8173	0.9260	7.2927
14.9603	0.8064	1.6163	9.2404
14.9653	0.3727	-0.2315	9.8249
14.9703	0.5509	0.5258	10.7395
14.9753	0.1681	-1.3938	10.8221
14.9803	0.3446	0.1047	9.8961
14.9853	-1.3035	0.9266	8.0237
14.9903	1.3029	-0.7908	7.2921
14.9953	0.3990	1.2993	7.8400
15.0003	0.2279	0.3715	7.3651
15.0053	1.2401	2.4012	7.4183
15.0103	0.3972	0.7472	10.5996
15.0153	-0.1836	-0.8704	11.2283
15.0203	1.7085	-0.5151	15.9786
15.0253	-0.3990	1.7384	11.8791
15.0303	0.6772	0.4457	8.5824
15.0353	1.4153	0.7041	7.6073
15.0403	0.3912	0.4953	10.7808
15.0453	0.2453	0.4804	7.2155
15.0503	0.3828	-3.1214	9.1274
15.0553	0.3009	1.4662	7.0121
15.0603	-0.5515	1.0816	8.1744
15.0653	0.7137	-0.0670	8.2408
15.0703	0.4110	-1.0857	9.1800
15.0753	0.9553	-0.1884	11.4227
15.0803	2.1864	-0.5683	9.5682
15.0853	1.1617	1.5296	11.0219
15.0903	1.2012	-0.9595	9.2877
15.0953	-0.2351	0.8500	11.1738
15.1003	1.8257	0.1388	9.8153
15.1053	1.4064	2.3665	7.3495
15.1103	0.4516	0.6341	8.0464
15.1153	0.3673	3.0766	7.7078
15.1203	-0.0849	1.8377	8.3222
15.1253	0.9338	-1.9095	8.1242
15.1303	0.3781	0.5091	10.4386
15.1353	0.9482	0.2381	8.5435
15.1403	1.0516	1.0923	9.8985
15.1453	1.1204	0.8070	7.5463
15.1503	0.4911	1.3388	9.7950
15.1553	1.8951	0.7472	9.7513
15.1603	-0.3535	-0.0766	9.5581
15.1653	0.7537	0.3870	10.0414
15.1703	1.4405	1.1826	9.5090
15.1753	0.1830	1.6283	9.6861
15.1803	0.8405	0.7669	9.2614
15.1853	-0.1316	-0.8877	8.6291
15.1903	1.5888	0.4289	10.9435
15.1953	1.1533	1.2867	8.9551
15.2003	0.4798	2.1493	10.4398
15.2053	1.0839	-0.0359	10.1018
15.2103	0.4373	1.6181	12.6023
15.2153	1.6911	-2.1912	9.8859
15.2203	-0.5049	1.2108	8.6470
15.2253	-0.0586	-1.0020	9.9038
15.2303	1.6762	0.6861	8.6129
15.2353	0.6790	2.0590	10.0833
15.2403	1.3125	-0.7866	9.9684
15.2453	1.8855	1.2479	7.0390
15.2503	0.9649	-2.0309	10.5361
15.2553	1.2299	2.5424	10.6420
15.2603	1.5763	-0.2148	9.7136
15.2653	-0.0520	0.7836	10.6917
15.2703	1.6140	0.4911	8.2983
15.2753	-0.5210	1.1180	7.2388
15.2803	1.2209	0.1155	8.6404
15.2853	0.3679	-0.2536	8.9862
15.2903	1.7210	0.1202	12.1860
15.2953	0.0150	1.9759	9.7058
15.3003	-0.7741	0.0096	6.5946
15.3053	2.2720	0.0012	9.6687
15.3103	0.4875	0.4564	10.3256
15.3153	-0.7316	0.8979	9.6341
15.3203	-1.0044	-2.4766	6.9918
15.3253	0.4319	2.7272	10.5990
15.3303	0.5474	-1.5123	9.8135
15.3353	0.8602	1.0074	12.8907
15.3403	2.4897	-1.7509	12.2703
15.3453	0.2806	1.4351	8.4502
15.3503	1.0463	0.6179	9.1794
15.3553	2.4413	1.0810	8.8899
15.3603	-0.8901	0.5378	11.3108
15.3653	1.1252	-1.9693	9.8913
15.3703	1.1240	2.8522	7.8646
15.3753	-1.1695	-0.5468	8.8253
15.3803	1.5003	0.0419	9.9978
15.3853	1.4273	2.8199	11.3048
15.3903	1.2754	0.3015	11.4466
15.3953	0.4086	-0.6419	10.2197
15.4003	-0.2435	1.2778	10.5230
15.4053	0.3757	0.0233	9.3541
15.4103	0.5408	0.5707	10.3112
15.4153	2.8959	-0.0461	9.0723
15.4203	-0.9523	2.3587	8.1553
15.4253	0.3978	-1.7635	5.5998
15.4303	0.5713	2.4963	7.8341
15.4353	0.0467	1.2682	9.9332
15.4403	1.0947	-1.8885	12.3272
15.4453	0.7113	-0.1208	8.6805
15.4503	-0.3141	-0.0090	11.0620
15.4553	0.9182	-0.9039	8.6745
15.4603	0.9757	-1.1683	11.0470
15.4653	0.4582	0.1962	11.1463
15.4703	0.4959	1.2317	7.6684
15.4753	-0.7466	-0.5067	8.3354
15.4803	0.8566	1.9059	10.4081
15.4853	0.5330	-0.0323	9.1052
15.4903	1.7497	1.3639	8.7529
15.4953	1.3765	0.6879	9.2392
15.5003	1.5487	1.2808	11.8755
15.5053	-0.0090	-1.8138	13.0438
15.5103	1.2987	0.1675	12.5180
15.5153	1.4052	0.3164	9.3302
15.5203	-0.2225	1.3836	9.2943
15.5253	1.7330	0.5611	10.3411
15.5303	1.5051	-0.7208	9.7567
15.5353	0.9170	1.1737	8.0955
15.5403	2.1176	1.2191	8.3461
15.5453	0.2333	2.1673	8.1631
15.5503	0.9822	-0.6712	9.6065
15.5553	0.2560	-0.8686	11.7050
15.5603	-0.3200	-0.2381	9.8350
15.5653	1.8574	0.9362	10.2741
15.5703	0.4594	-0.6730	7.9920
15.5753	1.9753	-0.1705	9.4695
15.5803	2.2636	3.1639	10.8275
15.5853	-1.1109	-1.9639	5.4987
15.5903	0.9063	0.4193	6.4863
15.5953	-1.0062	0.2865	9.8159
15.6003	-0.6586	-0.3805	7.4147
15.6053	0.7962	-0.1041	7.0402
15.6103	-0.3553	1.2239	9.1423
15.6153	2.3832	0.3398	9.4558
15.6203	2.2421	-0.0329	7.9591
15.6253	0.4576	1.6151	11.2139
15.6303	0.5755	1.2825	9.5090
15.6353	0.0562	0.7992	6.9858
15.6403	0.8943	0.6257	7.1372
15.6453	1.4070	1.4094	8.1379
15.6503	1.2813	0.8094	10.6881
15.6553	-0.7448	1.2299	11.2731
15.6603	1.8191	-1.7629	7.3549
15.6653	-0.2417	1.1749	10.4261
15.6703	-0.6072	-0.5079	8.6871
15.6753	0.7340	0.2327	8.1607
15.6803	0.9141	1.5679	9.9409
15.6853	0.2142	-1.3567	9.6012
15.6903	1.0211	1.2819	8.2719
15.6953	2.4293	0.5916	6.8273
15.7003	1.0654	-0.3697	8.5465
15.7053	-0.1741	0.3655	11.7750
15.7103	0.2824	2.5418	13.5331
15.7153	-0.2040	-1.0708	9.0831
15.7203	-0.8267	-0.4080	9.9834
15.7253	1.5858	0.7627	8.3312
15.7303	2.0124	-1.3854	9.1070
15.7353	1.4195	0.9870	9.1956
15.7403	-0.4134	-0.3242	10.6875
15.7453	0.1717	0.4989	12.6568
15.7503	-0.9876	-0.1801	10.1826
15.7553	0.5378	-0.2471	9.9816
15.7603	1.7360	-0.0951	7.5212
15.7653	-0.1113	1.7946	11.5609
15.7703	2.5041	0.2321	14.4717
15.7753	1.1222	-0.7430	5.6775
15.7803	1.4548	-1.7856	10.1892
15.7853	0.5928	2.3773	12.5138
15.7903	0.4439	-2.0937	9.7501
15.7953	2.5902	-0.6736	10.7760
15.8003	0.3015	2.3168	7.2299
15.8053	0.9200	-2.8983	7.1336
15.8103	0.3715	3.6018	9.0568
15.8153	-0.0215	-1.2604	8.2905
15.8203	0.4217	-0.5970	9.4564
15.8253	-0.0933	2.9306	11.1206
15.8303	-0.4624	-1.2060	9.1776
15.8353	1.4578	-0.8237	9.7459
15.8403	-0.2602	-2.0082	7.6247
15.8453	1.2969	-1.4118	7.6115
15.8503	0.7968	2.5639	7.5738
15.8553	-1.3789	2.5675	8.5286
15.8603	0.4379	-1.9412	8.9808
15.8653	0.1304	0.1681	11.7756
15.8703	0.5456	-1.4530	11.3102
15.8753	1.4668	-0.6108	7.7084
15.8803	0.7095	1.5464	9.0263
15.8853	0.4487	-0.1633	9.5587
15.8903	0.6407	1.5158	8.8684
15.8953	0.7406	-0.0748	10.1575
15.9003	0.3099	-0.5689	9.6711
15.9053	-0.7657	-2.9719	10.7545
15.9103	0.8794	1.6044	9.4486
15.9153	1.6570	0.3380	7.9854
15.9203	-0.8788	1.0606	7.8209
15.9253	1.5117	-0.5719	5.6578
15.9303	0.5797	0.9230	8.4047
15.9353	1.0504	-0.9942	10.0241
15.9403	1.4393	-0.2441	10.3268
15.9453	0.2608	-1.4590	9.7902
15.9503	0.0748	-0.4187	9.9170
15.9553	0.9105	0.6054	10.8646
15.9603	1.1791	0.3362	8.5872
15.9653	0.9081	1.7109	9.3972
15.9703	1.0833	-0.1884	9.7639
15.9753	1.0798	0.1819	10.5541
15.9803	1.3101	-1.1587	10.7521
15.9853	-1.1940	1.8227	4.8299
15.9903	0.7956	-1.6259	9.5557
15.9953	1.9047	1.8000	8.6464
16.0003	0.6808	0.1071	9.2135
16.0053	2.2989	-0.0413	6.5581
16.0103	-0.1448	0.9027	10.3118
16.0153	-0.9535	-0.7328	11.5902
16.0203	1.4082	1.9824	8.7409
16.0253	0.4373	-0.7741	10.2675
16.0303	1.6301	2.3132	9.1692
16.0353	-1.2461	0.1346	8.3210
16.0403	0.4666	-2.0183	10.8496
16.0453	3.3045	3.1854	10.6402
16.0503	-1.0863	-1.0756	9.7334
16.0553	0.6150	0.6718	9.4977
16.0603	0.2028	-0.9344	9.1232
16.0653	0.2500	-1.0355	9.1334
16.0703	0.3254	-1.2215	9.1136
16.0753	0.5994	1.5398	9.9930
16.0803	1.7713	0.9828	8.1924
16.0853	-0.7783	-0.2136	7.9884
16.0903	-0.3200	-0.0167	8.0117
16.0953	0.4187	-0.0167	9.3284
16.1003	0.2961	-0.7878	11.3108
16.1053	0.2315	-1.3406	11.1236
16.1103	0.2674	0.4331	6.3918
16.1153	0.5300	-1.7366	6.8123
16.1203	0.4540	1.0056	9.2835
16.1253	1.6463	0.4361	12.4007
16.1303	1.5667	0.0425	9.7686
16.1353	0.0652	2.0411	9.9469
16.1403	-0.0682	-0.4714	11.3993
16.1453	1.8742	0.1543	9.3996
16.1503	0.9392	-0.3834	11.8295
16.1553	0.6281	-0.0407	10.3286
16.1603	-1.0504	0.0455	11.2223
16.1653	1.2939	0.1382	9.2757
16.1703	1.3460	0.8315	8.0799
16.1753	1.5493	2.7894	11.7924
16.1803	-1.2461	-0.2506	6.1597
16.1853	1.2203	-0.2285	11.3533
16.1903	0.9703	3.5449	11.2977
16.1953	1.9286	-1.0720	7.5236
16.2003	1.8365	1.3400	10.3274
16.2053	-1.0481	0.0951	8.8432
16.2103	2.5178	-1.7641	8.6063
16.2153	2.1428	1.8060	10.8059
16.2203	-0.0640	2.4981	9.4941
16.2253	0.5862	-0.9009	8.0273
16.2303	0.6694	1.4309	12.1274
16.2353	0.5587	0.5145	11.8318
16.2403	0.6909	-1.0283	9.4354
16.2453	-0.1561	0.3894	9.7423
16.2503	2.7069	-1.3412	9.6544
16.2553	1.9830	3.0778	12.2643
16.2603	1.2562	-1.1097	9.6670
16.2653	0.3834	-0.2471	8.4149
16.2703	1.2293	-1.3920	11.0087
16.2753	2.0219	-0.6796	12.8620
16.2803	1.7874	3.0012	13.8801
16.2853	0.0634	1.1713	7.9381
16.2903	0.7077	2.7452	8.6739
16.2953	1.0343	1.6050	9.6478
16.3003	0.7693	2.9767	7.3417
16.3053	-0.3691	-3.2566	9.2697
16.3103	1.1115	3.5988	13.1371
16.3153	0.4409	-1.4243	10.2233
16.3203	-0.4104	2.9587	8.0153
16.3253	-0.8877	1.7342	8.6069
16.3303	-0.4235	-2.5274	11.8013
16.3353	2.6554	2.9156	8.4041
16.3403	-2.3581	-0.8100	6.4038
16.3453	2.2678	-0.3775	8.4041
16.3503	-1.0816	-1.0816	16.2980
16.3553	1.5870	-1.2413	10.2191
16.3603	-0.1807	0.7669	12.0358
16.3653	-0.9559	-3.6239	10.6151
16.3703	2.8361	2.4628	6.4785
16.3753	-0.0718	-0.0108	10.3561
16.3803	2.8540	0.1974	11.9623
16.3853	-0.3757	0.4451	10.8197
16.3903	0.7519	-1.0026	11.8671
16.3953	1.7061	-0.0108	7.6684
16.4003	1.0140	-1.1240	11.1774
16.4053	2.9138	0.1095	8.9689
16.4102	-1.3089	-0.9332	8.9527
16.4152	2.5436	0.0000	7.6343
16.4202	-0.0042	0.9523	6.9828
16.4252	0.6317	-1.6702	8.1373
16.4302	1.9884	1.8078	6.3403
16.4352	-0.5593	2.0865	8.4711
16.4402	1.6899	1.8132	8.6871
16.4452	-0.9918	0.8393	8.6967
16.4502	0.5390	-3.4259	9.3589
16.4552	3.0024	3.0795	8.2157
16.4602	-2.0470	-0.8680	9.7040
16.4652	0.4421	2.2409	9.3511
16.4702	-0.4618	-0.5593	12.0550
16.4752	1.6301	-0.6945	6.6281
16.4802	0.5850	2.9067	11.2809
16.4852	-0.5450	-0.5545	10.1551
16.4902	1.5739	-0.2578	8.3162
16.4952	0.2662	1.5362	9.0723
16.5002	0.7424	0.7334	8.5884
16.5052	-0.0796	-0.6861	9.9870
16.5102	2.0231	1.2054	11.7499
16.5152	2.3222	1.1342	8.9868
16.5202	-0.4253	0.2345	7.3178
16.5252	1.6373	0.0879	7.6528
16.5302	-0.9230	0.3787	9.6412
16.5352	1.8676	1.8024	9.4809
16.5402	0.0443	0.7071	8.9216
16.5452	-0.0897	-0.1424	9.8255
16.5502	1.7318	1.2837	9.7399
16.5552	-0.3141	1.6959	7.9160
16.5602	0.9517	-2.2516	8.6973
16.5652	1.4106	2.5657	12.4552
16.5702	1.2772	-2.9156	9.8997
16.5752	0.4816	0.5557	11.9557
16.5802	-0.1250	-0.5773	14.2576
16.5852	1.4267	-0.9458	12.9128
16.5902	2.2433	1.5709	11.2037
16.5952	0.2375	-1.6833	8.6781
16.6002	0.9099	0.5420	6.3045
16.6052	-0.1059	1.0600	12.7632
16.6102	1.5290	-0.2459	7.1509
16.6152	0.5934	0.5145	10.2137
16.6202	1.0983	-1.1617	7.9244
16.6252	-1.2969	-0.4211	10.1784
16.6302	0.7944	1.0134	10.7491
16.6352	1.4548	0.2070	8.7691
16.6402	-1.4040	0.4080	9.8763
16.6452	1.6451	1.1037	7.2646
16.6502	1.4512	1.5882	9.2919
16.6552	1.4991	0.6425	11.2642
16.6602	0.6730	-1.9412	10.4937
16.6652	0.4367	-1.8209	10.8011
16.6702	1.2837	0.2393	10.4524
16.6752	-1.1133	1.0588	10.7539
16.6802	1.9591	-1.8215	10.3268
16.6852	1.6618	2.2935	12.0526
16.6902	1.4979	-2.6088	9.0652
16.6952	0.4935	1.9286	11.0111
16.7002	2.8008	-1.2754	11.1415
16.7052	-0.0508	1.5009	10.8598
16.7102	-0.8183	1.7360	8.3306
16.7152	-0.0245	-0.8548	9.5515
16.7202	1.3507	1.0289	9.7728
16.7252	2.4963	0.3870	13.4476
16.7302	1.0110	1.5637	10.0510
16.7352	1.6815	-1.5571	7.5499
16.7402	0.9446	3.1968	8.2935
16.7452	-1.0451	-2.5980	6.0430
16.7502	-0.8794	1.4177	9.0538
16.7552	0.4768	-0.0078	5.2773
16.7602	-1.4315	1.9316	8.5764
16.7652	1.5111	1.4219	11.2438
16.7702	0.4839	-0.4068	10.3088
16.7752	2.5579	0.4953	10.1838
16.7802	-0.0652	1.4237	10.8777
16.7852	1.0714	0.5940	9.7232
16.7902	-0.2979	-0.8273	9.2805
16.7952	1.1210	-0.1543	9.2141
16.8002	0.7938	0.6748	8.5423
16.8052	0.1938	0.6730	8.6584
16.8102	1.1318	-0.0670	11.4927
16.8152	0.2973	-0.9045	9.4121
16.8202	0.3900	1.0181	8.7015
16.8252	-0.3577	0.4977	9.1148
16.8302	-1.1001	1.2664	7.0702
16.8352	-0.5180	-1.1366	9.9188
16.8402	-0.3332	0.4702	7.5714
16.8452	1.3884	-2.0327	10.7999
16.8502	1.5350	-0.1884	13.5062
16.8552	0.3631	-0.8710	8.9742
16.8602	2.3575	0.1256	9.7525
16.8652	-0.8124	1.0193	9.0771
16.8702	-0.4050	-0.6323	9.8871
16.8752	0.5659	1.9424	11.5345
16.8802	0.4229	-1.2670	9.9696
16.8852	0.4522	0.1250	8.3916
16.8902	1.7390	-0.3117	8.8139
16.8952	1.0911	2.1278	8.8899
16.9002	1.3382	-0.0826	9.3038
16.9052	0.0473	1.9154	9.8004
16.9102	-0.1268	-0.7633	8.3282
16.9152	0.2154	2.1021	9.3254
16.9202	1.1791	-0.0042	8.3042
16.9252	0.1561	-0.3452	9.5138
16.9302	1.2287	0.5258	9.5198
16.9352	-1.2496	2.0411	11.2390
16.9402	0.2722	-0.6724	10.7623
16.9452	1.1360	1.0654	10.0666
16.9502	1.1988	-1.1468	11.0231
16.9552	1.8090	0.7334	10.6151
16.9602	1.6391	-1.3125	10.7455
16.9652	1.0020	-1.0361	9.0616
16.9702	1.8060	-0.1202	11.2163
16.9752	1.6457	2.2038	9.6364
16.9802	-1.4937	0.3888	9.4109
16.9852	1.7479	0.4211	8.1385
16.9902	0.4140	0.0407	10.1712
16.9952	-0.1047	0.8267	8.6656
17.0002	0.8387	-1.0092	8.5304
17.0051	0.0305	1.7940	9.9086
17.0101	1.2909	-0.1442	11.1361
17.0151	2.0070	1.6881	9.3900
17.0201	0.0927	0.8752	11.1349
17.0251	1.0140	-0.6144	8.6004
17.0301	-0.0550	0.8919	11.2767
17.0351	0.9493	0.8572	10.5445
17.0401	0.6574	0.8453	8.2032
17.0451	-0.3535	0.4822	9.9284
17.0501	0.8770	1.4853	9.5365
17.0551	1.8897	1.5727	9.2356
17.0601	0.0245	-0.6724	8.4095
17.0651	0.8931	-2.1099	11.3993
17.0701	1.5571	2.9450	8.8953
17.0751	-0.1878	-1.3609	8.0357
17.0801	0.3075	2.0106	9.4564
17.0851	0.7753	-0.4211	8.8366
17.0901	-0.1460	0.3541	9.1932
17.0951	1.6421	1.7832	8.7493
17.1001	-1.7234	0.1914	8.4293
17.1051	0.8542	-0.4319	8.2049
17.1101	1.5667	1.2060	11.7535
17.1151	0.9493	-0.7071	8.1810
17.1201	-0.0060	1.3322	9.4474
17.1251	0.5420	1.1384	9.9116
17.1301	1.8670	-0.5821	7.9705
17.1351	-1.4919	1.9220	9.1998
17.1401	1.6929	0.0544	10.4195
17.1451	0.0042	-1.0391	11.3946
17.1501	1.9065	1.1779	8.6368
17.1551	1.0696	1.5290	9.5898
17.1601	-1.8484	0.0347	10.3022
17.1651	1.1468	-0.3326	10.7778
17.1701	-0.8154	0.1029	11.9216
17.1751	1.0690	-2.7745	10.1054
17.1801	1.1294	2.6572	10.1575
17.1851	1.3358	-1.2993	9.3409
17.1901	1.1306	2.6620	9.2656
17.1951	-0.1119	-1.5362	11.7308
17.2001	0.8871	2.7045	9.2010
17.2051	-0.1729	-1.4967	12.1495
17.2101	0.5761	-1.7868	10.0630
17.2151	2.4126	-0.4792	11.7888
17.2201	1.2670	2.7631	9.7202
17.2251	1.0457	1.2012	7.1043
17.2301	0.1472	-1.4363	8.7152
17.2351	2.0776	4.6127	9.0251
17.2401	-2.6375	-1.4913	8.1535
17.2451	2.1954	0.7896	9.2919
17.2501	1.6678	1.1037	10.6079
17.2551	-0.8369	-1.5984	12.2673
17.2601	2.3569	1.3352	10.6121
17.2651	-1.2885	-1.9454	13.3788
17.2701	1.4088	3.4744	8.0057
17.2751	0.3876	0.6496	12.6388
17.2801	3.0604	2.0381	8.0285
17.2851	1.4584	-1.5129	8.2510
17.2901	1.0929	3.0556	11.7385
17.2951	-1.4345	-1.7707	6.2363
17.3001	0.6287	-0.2518	8.0811
17.3051	2.0578	1.3376	10.2993
17.3101	0.2698	1.4046	9.9152
17.3151	1.3549	1.5458	9.3631
17.3201	0.8297	1.8694	9.0789
17.3251	0.6365	1.1797	7.5254
17.3301	0.1107	1.4806	10.1814
17.3351	-1.5978	-1.6008	13.7497
17.3401	0.9135	-0.8177	11.2719
17.3451	0.7968	0.8596	11.6745
17.3501	1.6726	-1.3154	11.6943
17.3551	0.7669	-1.9184	9.1597
17.3601	0.4451	2.0267	7.7383
17.3651	0.6341	1.6002	9.8327
17.3701	-0.7412	0.0245	8.9168
17.3751	-0.2339	1.7599	10.1730
17.3801	-0.3775	-0.3021	4.5134
17.3851	1.2879	0.2345	10.0570
17.3901	1.3029	0.2273	12.0957
17.3951	0.9380	-1.5164	10.2981
17.4001	1.9430	2.9761	8.2947
17.4051	-1.4752	-1.7270	9.4749
17.4101	1.7874	0.9888	7.7928
17.4151	1.6528	1.3729	10.2604
17.4201	1.5703	0.6646	9.8033
17.4251	-0.4074	-3.2782	12.0693
17.4301	0.7699	0.8333	11.7230
17.4351	2.7380	0.3655	9.3684
17.4401	-0.6401	-2.2989	9.4809
17.4451	1.6463	-0.4672	9.5132
17.4501	-0.7579	2.6339	8.8360
17.4551	0.5444	1.3160	7.3100
17.4601	1.6151	0.6455	12.8105
17.4651	-1.0253	-0.7418	12.7902
17.4701	1.1569	1.0498	6.7998
17.4751	0.9290	-2.5878	11.6315
17.4801	1.3962	-0.1884	8.7379
17.4851	0.7765	-0.8142	11.2187
17.4901	0.6287	1.2084	7.6355
17.4951	0.6682	0.1089	10.1377
17.5001	0.2752	2.4102	9.0490
17.5051	1.8526	1.3190	6.8111
17.5101	0.0150	0.5133	9.9774
17.5151	2.0524	0.6179	11.4005
17.5201	-1.5182	-0.0909	8.2743
17.5251	1.4973	-2.3085	9.7710
17.5301	-0.4235	4.3232	12.0143
17.5351	-0.0592	-5.4777	10.0612
17.5401	1.4788	3.3727	12.1764
17.5451	0.1890	-2.0829	10.0241
17.5501	0.8542	2.0566	7.4727
17.5551	0.9559	-0.9039	8.4783
17.5601	1.7264	2.6829	6.6323
17.5651	-1.2963	0.0730	4.0062
17.5701	0.1543	2.9007	9.8171
17.5751	1.0134	0.9577	8.7027
17.5801	-0.6048	-2.3204	8.4735
17.5851	2.6542	1.5027	6.1005
17.5901	-0.3553	-0.6544	13.3064
17.5951	1.8993	-0.8554	10.1138
17.6000	-1.4100	1.4632	9.1094
17.6050	0.5168	-1.6026	6.8973
17.6100	-0.3607	-0.1466	10.4344
17.6150	1.0367	3.5198	6.8608
17.6200	1.6445	3.5414	7.3405
17.6250	-1.3962	-1.4734	6.8040
17.6300	1.9142	-0.0849	7.6355
17.6350	-2.0112	1.4758	4.4722
17.6400	1.2102	-3.3535	8.4221
17.6450	-0.2465	2.6016	11.9096
17.6500	-0.4457	-4.0181	12.5670
17.6550	1.8700	1.1156	14.2767
17.6600	1.9454	-2.5346	11.5908
17.6650	-0.1639	1.8628	6.5437
17.6700	0.7226	-1.9226	5.3647
17.6750	1.9741	3.7382	11.6470
17.6800	-2.5908	1.1420	7.5098
17.6850	-2.2923	-1.2724	5.5065
17.6900	2.5974	1.1115	7.9567
17.6950	-0.0227	-2.7063	10.4679
17.7000	1.1145	1.5775	11.1242
17.7050	0.5749	-1.9735	11.5854
17.7100	1.0439	2.0285	2.4634
17.7150	1.4429	1.7162	14.0727
17.7200	-0.8818	1.3029	11.3922
17.7250	0.9852	0.7298	5.9719
17.7300	-0.4923	-0.6580	8.4514
17.7350	0.8955	0.9787	7.1222
17.7400	-0.8806	0.4295	10.4428
17.7450	0.8907	1.2096	9.5318
17.7500	0.3075	-0.0167	9.6873
17.7550	1.2467	-0.5821	10.2281
17.7600	0.6766	3.1878	11.1804
17.7650	0.9739	-1.4441	12.9284
17.7700	0.4391	-2.4149	10.7198
17.7750	0.9135	-1.0881	12.4121
17.7800	2.8361	1.6068	10.9094
17.7850	-1.4572	-1.8305	12.7627
17.7900	1.9753	-0.5826	6.5318
17.7950	-0.0700	1.4255	9.8440
17.8000	-0.3338	0.2004	8.4544
17.8050	2.2546	2.3910	14.2845
17.8100	0.4612	1.7946	11.6129
17.8150	-0.2237	-0.1759	10.9609
17.8200	1.8915	1.0780	10.5541
17.8250	-1.0032	-0.6425	9.1878
17.8300	-1.2592	-1.2449	7.4309
17.8350	1.6163	-2.1942	7.9818
17.8400	-0.0514	1.4327	7.6582
17.8450	0.3607	-1.3047	8.4915
17.8500	0.6269	2.0447	15.2829
17.8550	2.3838	-4.2060	8.5836
17.8600	1.1533	1.7497	11.3060
17.8650	1.6283	-0.1047	12.3601
17.8700	-2.5304	0.3906	7.0851
17.8750	1.6714	-0.5318	7.3082
17.8800	-0.2339	3.0245	10.3375
17.8850	0.3242	-0.2022	8.5148
17.8900	0.1974	0.0790	10.0761
17.8950	2.6674	0.6233	6.9990
17.9000	0.7460	-1.0175	9.0556
17.9050	-0.4391	2.0931	9.9960
17.9100	0.7771	0.0652	9.3320
17.9150	0.3164	2.6584	5.5824
17.9200	1.9711	-1.3962	9.7465
17.9250	0.9164	1.7647	12.8889
17.9300	1.3980	-2.1212	6.1172
17.9350	0.8572	-0.8148	8.7236
17.9400	1.8383	1.1809	9.7316
17.9450	0.8237	-1.0726	14.1463
17.9500	0.1005	2.2122	10.3896
17.9550	0.1478	-1.3478	8.8283
17.9600	0.3637	3.2841	6.4205
17.9650	0.5372	-1.2479	5.9790
17.9700	2.2468	2.9838	9.6574
17.9750	0.7172	-1.3334	10.5684
17.9800	-0.5127	-0.9858	10.2723
17.9850	3.0664	0.8895	7.9890
17.9900	-2.9001	-1.9136	11.4340
17.9950	1.8419	0.6084	6.7836
18.0000	-1.5446	-0.0981	7.9705
18.0050	1.6792	1.4159	4.0427
18.0100	0.9936	2.7541	12.4893
18.0150	0.7011	1.1994	8.5525
18.0200	1.4865	0.3194	9.3559
18.0250	-0.2465	1.5499	8.4652
18.0300	1.2909	1.4979	4.5601
18.0350	-2.5806	0.7382	10.8747
18.0400	2.4610	1.8060	9.2273
18.0450	-0.0389	3.1543	9.2243
18.0500	0.3188	-0.8112	9.7495
18.0550	-0.1627	-0.4421	13.9961
18.0600	1.8000	-2.8199	9.7669
18.0650	0.1214	1.7174	10.4967
18.0700	0.7208	-2.7787	10.5942
18.0750	2.8193	1.9914	8.7828
18.0800	-1.5200	-0.7531	10.6414
18.0850	-0.0694	-1.6750	6.0789
18.0900	0.7412	2.2546	5.9031
18.0950	0.7424	-0.7675	8.0243
18.1000	0.5174	2.5489	11.2797
18.1050	-0.3446	0.0401	12.1938
18.1100	0.5127	1.9567	8.5304
18.1150	-1.6086	-3.1328	11.0811
18.1200	1.4375	1.3633	6.6454
18.1250	-0.1585	0.4660	9.8955
18.1300	0.9523	-0.2578	7.6714
18.1350	0.7914	1.4435	8.8959
18.1400	0.1400	0.1238	10.6588
18.1450	0.4235	0.9440	11.1972
18.1500	-0.2961	-4.1587	12.5760
18.1550	0.5384	1.4153	8.1816
18.1600	1.5954	-2.4628	10.6612
18.1650	0.8465	1.3836	7.5194
18.1700	1.7569	-0.1340	9.0466
18.1750	1.1976	1.3328	8.7367
18.1800	-0.5689	1.8239	7.8317
18.1850	-2.2301	1.0157	8.3754
18.1900	1.3011	1.2502	11.2402
18.1949	0.1310	1.9986	12.6508
18.1999	0.2913	0.4235	4.7114
18.2049	0.3565	-2.7099	9.5611
18.2099	1.5194	0.8512	6.9930
18.2149	-1.7300	-0.1113	10.8568
18.2199	0.7071	-0.1872	10.1258
18.2249	-0.2471	1.6792	7.2245
18.2299	0.5210	-1.1545	7.4333
18.2349	0.4636	0.8483	13.0085
18.2399	1.5302	-0.2225	10.8604
18.2449	0.6449	-0.2853	7.8137
18.2499	1.4746	-0.2417	11.2390
18.2549	0.2417	0.8895	6.1866
18.2599	-1.5715	-0.8034	9.9014
18.2649	1.8120	0.6275	10.6917
18.2699	-0.0987	1.6744	12.7232
18.2749	0.1681	-1.0379	8.2259
18.2799	0.6670	2.5962	13.1365
18.2849	1.0080	0.7220	10.1120
18.2899	-0.1089	-0.0873	10.0354
18.2949	1.4542	-0.7645	9.2201
18.2999	1.5362	3.0658	6.9960
18.3049	-3.0119	-0.0921	10.9944
18.3099	1.9723	0.2871	10.3040
18.3149	-0.4098	0.9290	10.6558
18.3199	1.3807	-1.9830	10.0097
18.3249	1.6570	3.5438	12.0089
18.3299	1.5685	-2.4179	11.0189
18.3349	0.1663	0.3870	8.6004
18.3399	-1.1874	0.0491	8.2935
18.3449	1.6163	1.1934	5.5651
18.3499	-1.8622	-2.4676	10.5355
18.3549	2.5711	0.1083	11.6303
18.3599	2.3862	2.6943	13.8789
18.3649	0.8130	-0.8901	9.7196
18.3699	2.3533	0.5910	11.4322
18.3749	0.0903	2.6829	7.3597
18.3799	0.3368	-0.1394	11.4029
18.3849	-0.4169	0.6036	11.5597
18.3899	2.6788	1.3579	5.5908
18.3949	-1.4118	-0.9338	10.9573
18.3999	2.2349	0.8620	11.1092
18.4049	1.3340	2.1679	14.6057
18.4099	0.0138	0.6843	8.2971
18.4149	1.0528	0.2363	9.4959
18.4199	1.6504	2.1314	9.4552
18.4249	-1.6804	-0.3242	2.3168
18.4299	0.3709	1.4387	10.2382
18.4349	0.4337	1.1162	2.1733
18.4399	-1.1785	-4.6720	11.5034
18.4449	1.6205	-0.1430	14.1493
18.4499	1.4447	1.4722	18.5939
18.4549	0.9541	-0.1579	7.9244
18.4599	-0.8800	-1.5888	7.9836
18.4649	2.2133	0.4827	5.8600
18.4699	2.6417	1.5924	10.4727
18.4749	-0.0724	-2.0710	11.3611
18.4799	1.0905	-0.6359	11.7290
18.4849	1.0247	-0.5779	8.8821
18.4899	2.6572	-1.6516	7.5224
18.4949	1.4800	-1.7868	14.6464
18.4999	-1.1438	2.7057	6.8494
18.5049	1.2975	0.9236	9.9343
18.5099	1.9466	-1.7563	6.4600
18.5149	0.0526	2.1505	9.2985
18.5199	0.7531	-2.0512	10.5463
18.5249	0.2435	2.6118	8.7625
18.5299	0.1914	0.2315	5.7882
18.5349	-0.2997	-0.5898	10.6336
18.5399	2.1828	0.4654	13.5553
18.5449	-0.9194	2.8451	3.9242
18.5499	1.4112	-4.7862	10.9459
18.5549	4.6313	3.7316	9.6538
18.5599	1.6534	3.0353	14.0219
18.5649	1.3430	-0.5121	12.7896
18.5699	0.7747	0.1884	8.6620
18.5749	1.1916	-0.1914	8.4083
18.5799	0.5551	3.4690	13.9662
18.5849	-1.3178	-2.2098	9.4612
18.5899	2.6255	0.1777	7.3501
18.5949	0.6006	0.3834	6.9679
18.5999	1.1491	1.5793	4.6241
18.6049	0.4827	-1.1007	8.9647
18.6099	1.1952	1.1115	12.0927
18.6149	0.0604	2.2331	6.8883
18.6199	-1.4967	-1.2688	12.4647
18.6249	0.7777	2.2235	7.5314
18.6299	1.0445	-4.0642	10.2532
18.6349	2.0901	0.3499	10.5696
18.6399	0.2919	-0.0156	12.2649
18.6449	0.7980	1.9059	12.8560
18.6499	-2.0482	-2.2068	8.1792
18.6549	1.2114	-0.1250	3.9356
18.6599	-0.6544	5.4879	7.7060
18.6649	1.8867	-2.4371	12.5078
18.6699	1.2173	2.8965	13.1156
18.6749	1.5206	-2.8480	8.8815
18.6799	3.2267	-0.1531	10.0360
18.6849	-1.0690	-1.4817	8.0614
18.6899	2.6770	-0.4618	12.4229
18.6949	-2.1176	-0.2512	15.6819
18.6999	1.8461	1.3436	6.0263
18.7049	0.9822	-1.2825	6.6879
18.7099	2.8403	-1.2443	8.2241
18.7149	3.1459	2.7146	13.9208
18.7199	-0.0526	-3.2321	13.4368
18.7249	2.3773	-1.7599	10.1006
18.7299	0.4283	2.2696	8.2271
18.7349	2.3156	-0.6664	8.0955
18.7399	0.8297	0.1232	11.7433
18.7449	-0.3422	0.0479	7.9746
18.7499	3.8740	-2.8044	10.0917
18.7549	1.8520	2.1996	9.8781
18.7599	1.4124	0.4977	7.2006
18.7649	0.2351	1.8837	12.5174
18.7699	-1.4375	2.7493	8.7481
18.7749	1.9125	1.8191	5.3055
18.7799	1.0391	-0.0508	13.4057
18.7849	1.4710	2.9629	10.8717
18.7898	0.7561	0.2297	6.5629
18.7948	-1.4345	0.7705	7.8670
18.7998	2.4646	2.0620	8.5483
18.8048	0.4415	-0.9697	16.8394
18.8098	-0.0018	3.4779	12.0376
18.8148	1.7844	-0.1244	13.0121
18.8198	2.2433	3.2596	6.8895
18.8248	-0.4995	1.3920	9.0532
18.8298	-1.1503	1.4357	6.6191
18.8348	2.0800	0.7597	7.7383
18.8398	-0.1669	1.7294	10.5451
18.8448	0.6227	-2.9073	6.3433
18.8498	0.1286	0.0682	8.5178
18.8548	-1.8042	4.7288	6.9230
18.8598	-0.0467	-4.8933	9.0861
18.8648	3.2668	0.8483	7.2293
18.8698	2.8995	1.6833	13.4949
18.8748	0.5043	2.0530	14.3509
18.8798	0.2596	-0.4373	7.4075
18.8848	2.1799	-0.3380	9.1058
18.8898	-2.2899	-2.7499	9.5377
18.8948	-0.6006	1.1635	8.8546
18.8998	1.1330	-0.1161	7.3184
18.9048	-0.3733	-1.2867	6.8195
18.9098	1.7025	2.2576	6.7561
18.9148	1.5392	-3.1854	10.9926
18.9198	0.0299	1.2299	8.3988
18.9248	-0.7657	2.2582	7.6103
18.9298	2.3581	-0.1496	6.9170
18.9348	1.5840	3.1800	12.4749
18.9398	1.0062	-1.1432	13.9938
18.9448	2.9635	-1.4770	10.0959
18.9498	0.8423	0.2847	10.7341
18.9548	1.5158	0.1011	11.0817
18.9598	0.3206	-2.8343	8.3766
18.9648	0.3715	0.7340	9.2697
18.9698	0.5282	-1.0696	11.1995
18.9748	2.6602	2.2062	3.9487
18.9798	0.1693	0.1244	8.9533
18.9848	1.1814	0.7992	14.8330
18.9898	-0.5491	4.2921	8.7583
18.9948	-1.1773	2.0064	6.3900
18.9998	0.3864	-1.7934	11.9246
19.0048	-0.1292	-1.3495	13.0606
19.0098	3.3828	0.2148	10.2215
19.0148	-2.6195	0.6365	7.0199
19.0198	2.1338	0.8405	1.2556
19.0248	0.0921	2.8989	6.6759
19.0298	1.9119	0.5503	3.9493
19.0348	-1.4333	4.0690	9.8422
19.0398	3.4474	-2.5178	11.4556
19.0448	-1.5607	0.8680	15.2781
19.0498	1.5840	-2.1834	12.1010
19.0548	-0.2776	2.7362	11.3419
19.0598	-0.5198	-1.7007	5.0614
19.0648	1.1013	0.1250	10.6905
19.0698	0.1501	0.6538	12.2069
19.0748	-0.2219	0.2818	10.2879
19.0798	-0.6006	-0.6544	11.4963
19.0848	0.4624	-0.7735	5.3599
19.0898	1.3495	0.4289	7.9699
19.0948	2.0536	-0.7316	6.9380
19.0998	0.7920	2.4341	11.9784
19.1048	1.4967	0.8010	10.5433
19.1098	-2.0124	0.6993	9.8249
19.1148	0.4606	0.3673	5.9970
19.1198	-1.4710	-1.3101	11.0416
19.1248	0.4714	-2.3210	9.6544
19.1298	2.1314	1.7838	11.6428
19.1348	0.5336	1.8580	9.9074
19.1398	-0.7962	0.7107	10.6648
19.1448	2.8235	1.6008	9.5581
19.1498	0.8488	3.0012	7.2418
19.1548	2.0500	-2.3982	9.2356
19.1598	-1.0361	0.2345	11.4843
19.1648	-0.1950	0.0598	11.3820
19.1698	-1.4327	-0.6024	13.0312
19.1748	1.1868	0.6114	14.2031
19.1798	2.1422	-0.5043	11.4921
19.1848	0.2710	-0.2255	9.4163
19.1898	-0.9206	-1.3077	8.0590
19.1948	0.8638	0.3703	9.1226
19.1998	-1.5200	-0.6939	11.0225
19.2048	0.2106	-0.7591	8.3946
19.2098	0.6927	2.5059	12.2464
19.2148	2.9635	0.5868	12.1357
19.2198	-0.8393	-0.9936	10.0247
19.2248	0.1693	0.4403	9.6795
19.2298	0.1226	0.7836	3.7065
19.2348	-1.6666	-3.8429	10.4380
19.2398	2.0853	-0.9727	12.2685
19.2448	0.9882	1.8616	14.2480
19.2498	0.2489	-0.2435	9.8081
19.2548	0.4169	-0.9601	10.9250
19.2598	2.6536	-1.0068	8.9174
19.2648	0.0508	-0.6568	9.6161
19.2698	-0.9960	-2.4514	7.2628
19.2748	2.1063	4.4853	6.7047
19.2798	-0.4277	0.2674	7.4452
19.2848	0.3715	1.6917	7.1838
19.2898	0.0981	3.7005	7.1461
19.2948	1.6145	-2.6686	10.0444
19.2998	-1.0516	2.6321	12.1728
19.3048	0.8351	-2.7236	8.8815
19.3098	1.1133	1.0409	9.3708
19.3148	-1.7384	-0.9033	9.4815
19.3198	1.2556	2.4269	8.3252
19.3248	1.8843	-0.9266	8.5950
19.3298	0.8764	1.0068	9.3062
19.3348	1.2592	-1.4225	14.5555
19.3398	0.9422	1.0283	10.3501
19.3448	0.4098	-1.9202	5.1745
19.3498	1.0469	-0.5497	7.8855
19.3548	0.1322	2.4682	10.2987
19.3598	-0.7507	0.2955	11.9431
19.3648	1.2191	-0.5450	11.9138
19.3698	3.6951	1.1767	12.8392
19.3748	1.2718	0.1155	10.3938
19.3798	-0.9176	-1.7156	11.2241
19.3847	1.2724	2.9031	8.2959
19.3897	-1.0427	1.1079	12.5036
19.3947	-1.4285	-1.5840	3.3099
19.3997	1.0534	-2.8325	9.1154
19.4047	1.2179	-2.0040	10.1228
19.4097	0.2447	-0.3529	8.2301
19.4147	0.6837	-0.4552	9.0885
19.4197	-0.7657	-0.3093	8.2785
19.4247	-0.1579	-0.0479	7.0504
19.4297	0.9332	2.0770	10.1676
19.4347	2.5053	2.1009	7.3705
19.4397	-0.2243	1.6480	9.4354
19.4447	1.5894	-0.6395	10.9190
19.4497	1.5649	2.8492	10.5972
19.4547	-1.2831	0.9643	9.8787
19.4597	-1.2096	-3.0538	7.3405
19.4647	-0.0239	1.7707	11.4556
19.4697	2.5878	-0.1238	9.6939
19.4747	-1.6522	0.9123	9.5102
19.4797	1.7773	-0.8231	10.6444
19.4847	-0.2417	3.5940	9.9756
19.4897	-0.3547	-0.3272	8.4705
19.4947	1.0558	-0.0700	12.1716
19.4997	4.0139	1.5954	10.0737
19.5047	-0.1723	-0.2171	6.2243
19.5097	0.2225	0.1854	7.9178
19.5147	1.3830	1.6128	10.1150
19.5197	0.8429	0.7220	11.4885
19.5247	0.5055	-0.7585	13.5278
19.5297	2.0411	1.6283	8.8558
19.5347	0.1155	-1.2227	8.6686
19.5397	-1.2999	0.6461	9.2823
19.5447	3.0538	0.6760	10.8604
19.5497	-1.3783	1.2030	11.5674
19.5547	-0.8877	-0.7998	9.5443
19.5597	1.8353	0.0508	10.2251
19.5647	3.1184	2.0052	8.8337
19.5697	-0.2267	0.1854	7.2670
19.5747	0.7693	-1.8676	8.0165
19.5797	0.1011	2.6219	8.1942
19.5847	1.0576	-1.0660	9.2949
19.5897	-0.8794	0.1777	8.6207
19.5947	3.5802	0.5611	5.8492
19.5997	-0.8016	1.6582	12.8243
19.6047	0.4983	-0.2076	9.5216
19.6097	0.2536	1.6582	10.7754
19.6147	-1.7456	1.0187	8.3174
19.6197	0.8148	-1.4572	8.5399
19.6247	0.5934	3.4355	11.7463
19.6297	1.7731	-0.6042	11.7678
19.6347	1.2556	-0.4798	7.6038
19.6397	1.5206	-2.0949	6.7118
19.6447	0.3565	-0.7394	9.9439
19.6497	0.0341	0.6227	13.6558
19.6547	0.5569	1.0726	11.4005
19.6597	-1.0690	-2.4670	13.5619
19.6647	0.9936	2.1320	3.3942
19.6697	-0.9368	-1.1300	8.0309
19.6747	3.3045	-1.7575	11.6087
19.6797	3.2524	2.8720	15.2661
19.6847	0.8632	-2.7685	13.4619
19.6897	2.9497	1.0750	7.1796
19.6947	-1.0128	-0.1113	9.2674
19.6997	1.2484	-2.7242	5.1894
19.7047	0.4744	-2.1936	10.6767
19.7097	1.3310	0.2949	6.5575
19.7147	0.5246	0.5288	12.9738
19.7197	-0.0933	1.6373	5.9551
19.7247	1.3137	0.4816	8.0751
19.7297	0.7119	0.7789	5.9976
19.7347	-0.5450	1.1234	6.9709
19.7397	1.7683	0.8022	8.4963
19.7447	-0.8853	0.7149	7.2430
19.7497	2.7840	1.1707	5.6428
19.7547	-0.5480	2.6764	7.1844
19.7597	-0.8034	-3.6646	10.2059
19.7647	0.5910	0.3763	11.0273
19.7697	1.5123	-2.0249	12.2943
19.7747	-1.5278	0.9763	8.2839
19.7797	-0.4582	-0.8548	4.8149
19.7847	2.2343	-1.8712	7.2975
19.7897	0.4050	1.6038	8.5962
19.7947	-1.5158	-0.3900	7.6606
19.7997	0.5934	2.3868	12.6717
19.8047	0.8602	-0.0156	11.5920
19.8097	0.1507	-1.7462	9.1357
19.8147	0.9888	0.5240	10.7335
19.8197	0.3679	1.9011	6.2046
19.8247	-2.1882	-1.0157	8.9928
19.8297	1.2538	-0.8590	11.6063
19.8347	2.5890	-1.1916	11.2582
19.8397	1.1468	-0.1753	11.9539
19.8447	0.9087	1.3077	10.8675
19.8497	1.4542	0.5743	10.0989
19.8547	-3.4032	-2.8235	3.7352
19.8597	-0.6688	0.8937	3.4397
19.8647	0.4140	3.5432	10.8209
19.8697	2.4526	-2.2911	10.9375
19.8747	2.0967	-0.6682	11.6787
19.8797	2.9988	-2.0536	13.0055
19.8847	0.6957	-0.0060	11.4592
19.8897	-0.9685	-3.0317	11.4149
19.8947	2.3611	1.8311	13.3626
19.8997	2.5573	-1.6307	15.1758
19.9047	-0.8010	0.5815	7.7593
19.9097	3.2129	-2.3420	13.0498
19.9147	3.1442	4.1276	9.7465
19.9197	-1.9316	-1.9759	7.7724
19.9247	0.1274	-0.0096	10.2364
19.9297	1.1348	-0.5288	11.6464
19.9347	-0.6921	0.2536	6.4474
19.9397	-0.1723	-2.2014	6.8153
19.9447	-1.1491	-1.0558	12.0125
19.9497	0.0706	6.1609	4.6887
19.9547	-0.5378	-1.1115	12.6687
19.9597	0.8752	4.3106	5.4538
19.9647	-0.1830	-5.3324	12.4205
19.9697	-0.3170	-2.2486	9.8602
19.9747	0.2806	1.3681	9.4887
19.9797	1.5876	-1.7168	9.0711
19.9846	-2.0859	-0.2931	9.5976
19.9896	1.9071	0.1513	8.2947
19.9946	1.5404	1.4321	11.0111
19.9996	-1.5996	1.3483	10.8975
20.0046	-0.5174	3.4313	12.4342
20.0096	-2.7679	-1.1958	11.4334
20.0146	0.5216	1.4692	3.0652
20.0196	-0.7777	-0.2590	8.7505
20.0246	4.0014	2.5669	8.2349
20.0296	0.6808	-1.0175	10.7892
20.0346	-0.1077	-0.8046	12.4635
20.0396	-1.4189	2.8780	7.8987
20.0446	-0.6969	2.7332	10.0342
20.0496	-1.1940	-2.3844	4.9705
20.0546	1.3537	-0.9888	9.5294
20.0596	2.1164	0.8213	8.9042
20.0646	-1.1139	-0.9170	9.6329
20.0696	0.2812	2.3982	10.4045
20.0746	-2.6590	1.6881	6.1106
20.0796	1.2909	-0.4708	2.8127
20.0846	-0.8082	2.7368	8.5513
20.0896	4.1731	-1.5673	10.7156
20.0946	-1.5039	2.2415	15.2560
20.0996	1.0786	-3.1035	7.5744
20.1046	1.0475	1.1563	7.0564
20.1096	-0.7836	0.9224	9.3768
20.1146	0.7765	-3.1017	6.1848
20.1196	0.5420	0.4032	8.6416
20.1246	-1.1438	2.0435	7.1850
20.1296	0.8004	-3.7136	12.2470
20.1346	-0.1543	2.6297	8.9413
20.1396	-0.4690	-1.5188	13.3094
20.1446	1.0349	1.3274	8.8408
20.1496	0.9398	0.7860	10.2987
20.1546	2.7152	0.6622	10.1509
20.1596	-0.1669	-0.4475	12.7004
20.1646	-0.3236	-4.6432	7.3268
20.1696	1.1366	0.7107	10.9968
20.1746	-0.9266	-1.7701	9.5736
20.1796	1.0080	1.0110	3.8536
20.1846	0.5127	0.3320	6.9750
20.1896	2.9097	1.8054	8.4843
20.1946	1.8939	1.8102	5.8773
20.1996	2.6375	0.7771	10.7318
20.2046	1.6929	4.1366	10.9399
20.2096	-1.3442	-0.8423	10.9752
20.2146	2.3372	2.7284	5.3390
20.2196	2.5160	-0.2728	10.3878
20.2246	2.9952	-2.4712	3.8004
20.2296	0.9733	0.1466	10.7976
20.2346	-0.3805	0.1172	12.9284
20.2396	0.7190	-2.4413	12.9541
20.2446	2.1446	-0.2590	12.0687
20.2496	-0.7777	-1.3747	12.8667
20.2546	0.4253	1.1761	5.1164
20.2596	-1.1916	-1.4907	13.4703
20.2646	3.4062	-0.6425	9.1064
20.2696	3.2716	-0.0748	8.6943
20.2746	2.2181	-0.7795	5.5172
20.2796	-0.0640	3.4947	11.3072
20.2846	-0.8626	-0.3900	9.6341
20.2896	0.6203	-1.5846	10.9698
20.2946	3.4032	-2.0644	10.2819
20.2996	0.9775	0.5916	16.2544
20.3046	2.0638	-3.2291	13.9435
20.3096	0.6628	1.3208	15.5497
20.3146	-2.6177	-3.6239	6.7298
20.3196	-0.0054	-0.3960	2.3336
20.3246	-0.6604	-0.2566	8.5052
20.3296	4.3759	0.0042	8.5477
20.3346	1.9663	1.4153	15.6974
20.3396	1.0337	-2.8110	7.1372
20.3446	2.3563	0.7759	10.5577
20.3496	-1.4255	0.1591	9.2051
20.3546	0.1166	-1.5942	8.9156
20.3596	0.5210	-2.8062	8.6781
20.3646	1.9190	2.8684	5.9043
20.3696	0.2052	-0.9398	9.1597
20.3746	0.0203	1.0660	13.3327
20.3796	-0.0700	-0.4397	6.0526
20.3846	-0.9176	0.2369	6.4821
20.3896	0.3763	3.3122	10.0666
20.3946	1.9866	-1.2951	11.9814
20.3996	1.5607	-0.4756	10.4512
20.4046	1.3693	-2.2977	12.1250
20.4096	1.1803	-0.0311	9.9170
20.4146	0.5043	-2.2002	10.7718
20.4196	0.0353	1.2778	11.5567
20.4246	1.3872	-2.9886	14.0494
20.4296	0.4080	1.7366	6.4905
20.4346	-0.6197	-2.4329	11.2516
20.4396	3.3398	-0.1675	7.4333
20.4446	2.1469	-0.5898	12.9666
20.4496	0.6126	3.1017	5.6614
20.4546	-0.4056	1.9005	9.4839
20.4596	3.0401	1.2090	8.8343
