count	accelx	accely	accelz	roll	pitch	heading
count	accelx	accely	accelz	roll	pitch	heading
1	0.0050	0.0430	-0.0690	-0.1370	-0.0090	0.0000
2	-0.0080	0.0520	0.0270	-0.1400	-0.0070	0.0000
3	0.0100	0.0300	-0.0260	-0.1430	-0.0100	0.0000
4	-0.1250	0.0220	0.0290	-0.1400	-0.0050	0.0000
5	-0.0430	0.0020	-0.0330	-0.1390	-0.0030	0.0000
6	-0.0250	0.0450	-0.0440	-0.1400	0.0030	0.0000
7	-0.0140	0.0150	-0.0130	-0.1380	0.0020	0.0000
8	-0.0140	0.0150	-0.0130	-0.1380	0.0020	0.0000
9	-0.0020	0.0210	-0.0100	-0.1380	0.0050	0.0000
10	0.0060	0.0370	0.0740	-0.1330	0.0050	0.0000
11	0.0130	0.0300	0.0610	-0.1350	0.0030	0.0000
12	-0.0040	0.0150	-0.0260	-0.1360	0.0040	0.0000
13	0.1200	0.0240	-0.0150	-0.1360	0.0040	0.0000
14	-0.0050	0.0300	-0.0210	-0.1340	-0.0010	0.0000
15	-0.0020	0.0060	-0.0530	-0.1330	0.0010	0.0000
16	-0.0060	0.0390	0.0090	-0.1340	0.0020	0.0000
17	0.0050	0.0350	-0.0680	-0.1390	0.0030	0.0000
18	0.0060	0.0260	0.0210	-0.1370	-0.0040	0.0000
19	0.0120	0.0390	0.0420	-0.1390	-0.0010	0.0000
20	-0.0120	0.0210	-0.0130	-0.1340	-0.0030	0.0000
21	-0.0150	0.0320	0.0140	-0.1390	0.0040	0.0000
22	-0.0090	0.0200	-0.0010	-0.1400	0.0042	0.0000
23	-0.0260	0.0250	-0.0100	-0.1380	0.0040	0.0000
24	-0.0110	0.0240	0.0140	-0.1330	0.0003	0.0000
25	0.0000	0.0180	-0.0210	-0.1330	0.0060	0.0000
26	-0.0090	0.0260	0.0120	-0.1330	0.0060	0.0000
27	-0.0090	0.0390	-0.0160	-0.1320	0.0010	0.0000
28	-0.0110	0.0330	0.0130	-0.1320	0.0010	0.0000
29	0.0050	0.0180	-0.0090	-0.1370	-0.0050	0.0000
30	0.0230	0.0040	-0.0250	-0.1370	-0.0050	0.0000
31	-0.0220	0.0120	-0.0250	-0.1000	-0.0030	0.0000
32	0.0220	-0.0030	0.0025	-0.1000	-0.0030	0.0000
33	0.0310	0.0140	-0.0070	-0.1390	-0.0110	0.0000
34	-0.0280	0.0290	-0.0070	0.1390	-0.0150	0.0000
35	0.0020	0.0170	0.0370	0.0000	-0.0150	0.0000
36	-0.0220	0.0100	0.0130	0.1320	-0.0170	0.0000
37	0.0060	0.0430	-0.0230	0.1320	-0.0170	0.0000
38	-0.0400	0.0190	-0.0400	-0.1330	-0.0130	0.0000
39	0.0070	0.0340	0.0000	-0.1330	-0.0150	0.0000
40	0.0110	0.0010	-0.0150	-0.1360	-0.0110	0.0000
41	-0.1580	0.0080	-0.0210	-0.1410	-0.0090	0.0000
42	-0.0030	0.0230	-0.0010	-0.1370	-0.0080	0.0000
43	-0.0360	0.0230	-0.0010	-0.1370	-0.0080	0.0000
44	-0.0140	0.0160	-0.0140	-0.1240	-0.0110	0.0000
45	-0.0250	0.0290	0.0050	-0.1240	-0.0150	0.0000
46	-0.0390	0.0060	-0.0690	-0.1190	-0.0160	0.0000
47	-0.0260	0.0140	-0.0160	-0.1180	-0.0170	0.0000
48	-0.0030	0.0250	0.0600	-0.1170	-0.0190	0.0000
49	-0.0110	0.0320	0.0300	-0.1140	-0.0190	0.0000
50	0.0210	0.0350	0.0390	-0.1120	-0.0180	0.0000
51	-0.0230	0.0120	-0.0270	-0.1100	-0.0200	0.0000
52	-0.0130	0.0220	-0.0710	-0.1080	-0.0190	0.0000
53	0.0010	0.0300	0.0490	-0.1130	-0.0170	0.0000
54	0.0130	0.0270	-0.0300	-0.1080	-0.0170	0.0000
55	-0.0090	0.0140	-0.0090	-0.1090	-0.0190	0.0000
56	0.0110	0.0140	0.0780	-0.1080	-0.0180	0.0000
57	-0.0260	0.0270	0.0330	-0.1090	-0.0190	0.0000
58	-0.0120	0.0460	-0.0240	-0.1070	-0.0210	0.0000
59	0.0560	0.0350	-0.0140	-0.1080	-0.0210	0.0000
60	-0.0180	-0.1090	0.0130	-0.1120	-0.0220	0.0000
61	-0.0170	0.0360	-0.0070	-0.1170	-0.0210	0.0000
62	-0.0120	0.0280	0.0040	-0.1140	-0.0240	0.0000
63	-0.0260	0.0390	-0.0520	-0.1230	-0.0260	0.0000
64	-0.0250	0.0290	-0.0410	-0.1220	-0.0270	0.0000
65	-0.0090	0.0150	0.0340	-0.1200	-0.0320	0.0000
66	-0.0080	0.0210	0.0370	-0.1250	-0.0310	0.0000
67	-0.0280	0.0320	0.0420	-0.1270	-0.0350	0.0000
68	0.1030	0.0200	-0.0490	-0.1240	-0.0340	0.0000
69	-0.0030	0.0270	-0.0150	-0.1290	-0.0350	0.0000
70	0.0080	0.0170	-0.0020	-0.1250	-0.0350	0.0000
71	-0.0210	0.0420	-0.0130	-0.1230	-0.0390	0.0000
72	-0.0270	0.0230	-0.0220	-0.1240	-0.0370	0.0000
73	-0.0260	0.0220	-0.0100	-0.1220	-0.0360	0.0000
74	0.0220	0.0230	0.0070	-0.1200	-0.0360	0.0000
75	0.0220	0.0320	0.0240	-0.1220	-0.0370	0.0000
76	0.0060	-0.0020	-0.0580	-0.1170	-0.0350	0.0000
77	-0.0200	0.0280	-0.0190	-0.1120	-0.0390	0.0000
78	-0.0350	0.0320	-0.0070	-0.1140	-0.0400	0.0000
79	0.0280	0.0390	0.0110	-0.1140	-0.0420	0.0000
80	-0.0320	0.0400	0.0160	-0.1110	-0.0420	0.0000
81	-0.0070	-0.0020	-0.0090	-0.1090	-0.0370	0.0000
82	0.0010	0.0350	0.0370	-0.1080	-0.0380	0.0000
83	0.0040	0.0420	-0.0180	-0.1040	-0.0400	0.0000
84	-0.0040	0.0290	-0.0140	-0.1000	-0.0410	0.0000
85	-0.0120	0.0250	-0.0570	-0.0940	-0.0440	0.0000
86	0.0000	0.0160	-0.0160	-0.0930	-0.0480	0.0000
87	-0.0510	0.0100	-0.0410	-0.0900	-0.0520	0.0000
88	-0.0130	0.0040	-0.0090	-0.0940	-0.0540	0.0000
89	-0.0220	0.0450	0.0070	-0.0970	-0.0530	0.0000
90	-0.0220	0.0040	0.0050	-0.0950	-0.0550	0.0000
91	0.0030	0.0150	0.0450	-0.0940	-0.0600	0.0000
92	0.0120	0.0370	-0.0040	-0.0940	-0.0570	0.0000
93	-0.0170	-0.0220	-0.0600	-0.0920	-0.0610	0.0000
94	-0.0100	0.0000	0.0120	0.0000	-0.0600	0.0000
95	-0.0280	0.0140	0.0120	0.0000	-0.0600	0.0000
96	-0.0260	0.0000	0.0000	-0.0600	1.1840	0.0000
97	-0.0370	0.0190	0.0000	-0.0600	1.1840	0.0000
98	0.0010	0.0090	0.0402	-0.0920	-0.0570	0.0000
99	-0.0150	0.0900	0.0402	-0.0920	-0.0570	0.0000
100	-0.0060	0.0250	-0.0090	-0.0940	-0.0540	0.0000
101	-0.0060	0.0250	-0.0090	-0.0940	-0.0540	0.0000
102	-0.0120	0.0200	-0.0190	-0.0920	-0.0550	0.0000
103	-0.0120	0.0110	-0.0190	-0.0920	-0.0550	0.0000
104	-0.0080	0.0220	0.0320	-0.0970	-0.0580	0.0000
105	-0.0110	0.0200	-0.3600	-0.1000	-0.0540	0.0000
106	-0.0040	0.0200	-0.3600	-0.1000	-0.0540	0.0000
107	-0.0300	-0.0220	0.0000	-0.0960	-0.0580	0.0000
108	-0.0200	-0.0220	0.0000	-0.0960	-0.0580	0.0000
109	-0.0170	0.0010	-0.0120	-0.0940	-0.0560	0.0000
110	0.0117	0.0010	-0.0120	-0.0940	-0.0560	0.0000
111	-0.0130	0.0300	-0.0310	-0.0930	-0.0620	0.0000
112	-0.0130	0.0300	-0.0310	-0.0930	-0.0620	0.0000
113	0.0090	0.0000	0.0150	-0.0920	-0.0610	0.0000
114	-9.0000	0.0000	0.0150	-0.0920	-0.0610	0.0000
115	-0.0160	0.0250	-0.0420	-0.0920	-0.0610	0.0000
116	-0.0160	0.0250	-0.0420	-0.0920	-0.0610	0.0000
117	0.0161	0.0290	0.0330	-0.0820	-0.0720	0.0000
118	0.0150	0.0080	-0.0280	-0.0830	-0.0690	0.0000
119	-0.0170	0.0330	-0.0100	-0.0850	-0.0670	0.0000
120	-0.0100	0.0290	-0.0050	-0.0840	-0.0640	0.0000
121	-0.0280	-0.0040	0.0190	-0.0800	-0.0620	0.0000
122	0.0130	0.0190	0.0200	-0.0890	-0.0640	0.0000
123	0.0130	0.0050	-0.0400	-0.0900	-0.0600	0.0000
124	-0.0440	0.0200	-0.0190	-0.0940	-0.0570	0.0000
125	-0.0020	0.0090	-0.0240	-0.0940	-0.0560	0.0000
126	-0.0140	0.0160	-0.0270	-0.0930	-0.0530	0.0000
127	-0.0120	0.0370	-0.0150	-0.0950	-0.0520	0.0000
128	-0.0280	0.0000	-0.0160	-0.0900	-0.0560	0.0000
129	-0.0210	0.0160	-0.0030	-0.0900	-0.0490	0.0000
130	0.0140	0.0450	0.0030	-0.0880	-0.0470	0.0000
131	-0.0240	0.0380	-0.0440	-0.0890	-0.0470	0.0000
132	0.1130	0.0220	-0.0320	-0.0910	-0.0460	0.0000
133	-0.0050	0.0090	0.0090	-0.0930	-0.0530	0.0000
134	-0.0520	0.0360	-0.0120	-0.0880	-0.0570	0.0000
135	0.0110	0.0260	-0.0600	-0.0860	-0.0580	0.0000
136	0.0020	-0.0100	-0.0060	-0.0870	-0.0560	0.0000
137	0.0200	0.0310	0.0120	-0.0850	-0.0570	0.0000
138	-0.0060	0.0390	0.0010	-0.0880	-0.0580	0.0000
139	-0.0130	0.0230	0.0150	-0.0930	-0.0610	0.0000
140	0.0010	0.0180	-0.0330	-0.0910	-0.0590	0.0000
141	-0.0240	0.0160	0.0180	-0.0940	-0.0660	0.0000
142	-0.0160	0.0310	-0.0180	0.0000	-0.0670	0.0000
143	-0.0150	0.0150	0.0180	0.0000	-0.0670	0.0000
144	-0.0200	0.0260	0.0270	-0.0990	-0.0710	0.0000
145	0.0080	0.0160	0.0270	-0.0990	-0.0710	0.0000
146	-0.0070	0.0270	0.0000	-0.0970	-0.0690	0.0000
147	-0.0070	0.0270	0.0000	-0.0970	-0.0690	0.0000
148	-0.0270	0.0310	-0.0300	-0.1010	-0.0660	0.0000
149	-0.0030	0.0310	-0.0300	-0.1010	-0.0660	0.0000
150	0.0160	-0.1240	0.0560	-0.0980	-0.0690	0.0000
151	-0.0290	0.1240	0.0560	-0.0980	-0.0690	0.0000
152	-0.0360	0.1240	0.0560	-0.0980	-0.0690	0.0000
153	-0.0160	0.0230	0.0240	-0.1030	-0.0670	0.0000
154	-0.0140	0.0300	0.0060	-0.1010	-0.0670	0.0000
155	-0.0170	0.0370	0.0230	-0.0990	-0.0650	0.0000
156	0.0210	0.0230	-0.0420	-0.1010	-0.0640	0.0000
157	-0.0030	0.0380	0.0430	-0.1020	-0.0630	0.0000
158	-0.0030	0.0380	0.0430	-0.1020	-0.0630	0.0000
159	-0.0140	0.0360	0.0180	-0.1040	-0.0640	0.0000
160	-0.0100	0.1760	0.0080	-0.1060	-0.0640	0.0000
161	-0.0180	0.0250	-0.0020	-0.1060	-0.0580	0.0000
162	-0.0120	-0.0010	0.0190	-0.1070	-0.0560	0.0000
163	-0.0090	0.0140	-0.0190	-0.1050	-0.0540	0.0000
164	-0.0350	0.0110	-0.0430	-0.1080	-0.0490	0.0000
165	-0.0190	0.0070	-0.0240	-0.1090	-0.0530	0.0000
166	-0.0070	0.0150	0.0510	-0.1110	-0.0550	0.0000
167	0.0080	0.0140	-0.0620	-0.1120	-0.0550	0.0000
168	-0.0160	0.0180	-0.0050	-0.1080	-0.0560	0.0000
169	-0.0240	0.0180	0.0140	-0.1110	-0.0530	0.0000
170	-0.0340	0.0370	-0.0020	-0.1110	-0.0500	0.0000
171	-0.0080	0.0390	-0.0310	-0.1090	-0.0520	0.0000
172	-0.0110	0.0130	0.0030	-0.1090	-0.0540	0.0000
173	-0.0230	0.0330	-0.0550	-0.1130	-0.0530	0.0000
174	-0.0180	0.0280	0.0400	-0.1110	-0.0540	0.0000
175	0.0000	0.0360	0.0140	-0.1070	-0.0520	0.0000
176	-0.0200	0.0400	-0.0240	-0.1040	-0.0520	0.0000
177	-0.0350	0.0180	-0.0010	-0.1030	-0.0510	0.0000
178	-0.0160	0.0150	-0.0340	-0.1000	-0.0520	0.0000
179	-0.0250	0.0050	0.0400	-0.0930	-0.0500	0.0000
180	-0.0130	0.0140	0.0050	-0.0950	-0.0440	0.0000
181	-0.0350	0.0160	-0.0030	-0.0950	-0.0390	0.0000
182	0.0050	0.0200	-0.0010	-0.0980	-0.0380	0.0000
183	0.0020	0.0370	0.0250	-0.0970	-0.0350	0.0000
184	0.0220	0.0050	0.0060	-0.0970	-0.0350	0.0000
185	-0.0030	0.0020	-0.0500	-0.1000	-0.0390	0.0000
186	-0.0440	0.0140	-0.0020	-0.0990	-0.0420	0.0000
187	-0.0270	0.0100	0.0170	-0.1010	-0.0380	0.0000
188	-0.0040	0.0320	-0.0300	-0.1010	-0.0400	0.0000
189	0.0120	0.0210	-0.0400	-0.0990	-0.0400	0.0000
190	0.0030	0.0170	0.0400	-0.0980	-0.0410	0.0000
191	-0.0380	0.0240	0.0360	-0.0950	-22.0000	0.0000
192	-0.0240	0.0150	-0.0470	-0.0900	-22.0000	0.0000
193	-0.0210	0.0080	-0.0210	-0.0950	-0.0350	0.0000
194	-0.0110	0.0140	-0.0120	-0.0910	-0.0340	0.0000
195	-0.0010	0.0390	-0.0250	-0.0930	-0.0340	0.0000
196	0.0200	0.0460	-0.0080	-0.0930	0.0000	0.0000
197	0.0100	0.0120	0.0340	-0.0930	0.0000	0.0000
198	0.0140	0.0240	0.0360	-0.0950	-0.0310	0.0000
199	0.0080	0.0340	0.0030	-0.0950	-0.0310	0.0000
200	-0.0070	0.0380	0.0560	-0.0310	1.8850	0.0000
201	-0.0140	0.0170	-0.0600	-0.0880	-0.0380	0.0000
202	-0.0180	0.0140	0.0058	-0.0890	-0.0360	0.0000
203	0.0130	0.0180	0.0000	-0.0870	-0.0360	0.0000
204	-0.0070	0.0170	33.0000	-0.0870	-0.0340	0.0000
205	-0.0250	0.0270	0.0220	-0.0890	-0.0300	0.0000
206	0.0070	0.0057	0.0220	-0.0890	-0.0300	0.0000
207	0.0130	0.0150	-0.0040	-0.0960	-0.0310	0.0000
208	0.0010	0.0150	0.0020	-0.0970	-0.0280	0.0000
209	0.0130	0.0240	0.0370	-0.0960	-0.0280	0.0000
210	0.0210	0.0030	-0.0140	-0.0960	-0.0310	0.0000
211	0.0010	0.0450	0.0100	-0.0950	-0.0310	0.0000
212	-0.0340	0.0450	0.0100	-0.0950	-0.0310	0.0000
213	-0.0350	-0.1200	-0.0190	-0.1010	-0.0300	0.0000
214	0.0035	-0.1200	-0.0190	-0.1010	-0.0300	0.0000
215	-0.1400	0.0400	0.0430	-0.1020	-0.0300	0.0000
216	-0.0030	0.0220	0.0290	-0.1020	-0.0300	0.0000
217	-0.0360	0.0200	0.0280	-0.0970	-0.0300	0.0000
218	-0.0030	0.0280	0.0280	-0.1030	-0.0270	0.0000
219	0.0000	0.0280	-0.0710	-0.1030	-0.0280	0.0000
220	-0.0210	0.0080	-0.0590	-0.1040	-0.0340	0.0000
221	-0.0120	0.0100	0.0510	-0.1070	-0.0300	0.0000
222	0.0170	0.0110	0.0130	-0.1080	-0.0310	0.0000
223	0.0050	-0.1230	-0.0230	-0.1070	-0.0310	0.0000
224	-0.0250	0.0020	-0.0980	-0.1130	-0.0280	0.0000
225	-0.0330	0.0510	0.0190	-0.1120	-0.0260	0.0000
226	0.0150	0.0150	0.0020	-0.1590	-0.0290	0.0000
227	-0.0040	0.0280	0.0190	-0.1610	-0.0300	0.0000
228	0.0190	0.0000	-0.0540	-0.1600	-0.0260	0.0000
229	-0.0010	35.0000	0.0280	-0.1620	-0.0230	0.0000
230	-0.0080	0.0260	0.0150	-0.1630	-0.0250	0.0000
231	-0.0170	0.0260	0.0150	-0.1630	-0.0250	0.0000
232	0.0017	0.0100	-0.0370	-0.1660	-0.0270	0.0000
233	-0.0700	0.0220	0.0220	-0.1650	-0.0230	0.0000
234	-0.0190	0.0440	0.0220	-0.1650	-0.0260	0.0000
235	-0.0010	0.0460	0.0040	-0.1580	-0.0250	0.0000
236	-0.0110	0.0030	0.0020	-0.1520	-0.0200	0.0000
237	0.0020	0.0370	-0.0280	-0.1510	-0.0160	0.0000
238	-0.0170	0.0310	0.0250	-0.1530	-0.0160	0.0000
239	-0.0090	0.0200	-0.0160	-0.1530	-0.0190	0.0000
240	-0.0100	0.0130	-0.0490	-0.1480	-0.0170	0.0000
241	-0.0250	0.0010	-0.0210	-0.1510	-0.0190	0.0000
242	0.0310	0.0110	-0.0600	-0.1450	-0.0210	0.0000
243	0.0310	0.0200	-0.0040	-0.1470	-0.0200	0.0000
244	-0.0250	0.0250	-0.0130	-0.1460	-0.0240	0.0000
245	-0.0200	0.0500	0.0300	-0.1450	-0.0210	0.0000
246	0.0080	0.0440	0.0000	-0.1430	-0.0220	0.0000
247	0.0050	0.0120	0.0040	-0.1440	-0.0210	0.0000
248	-0.1560	0.0060	-0.0240	-0.1440	-0.0180	0.0000
249	-0.0020	0.0140	-0.0430	-0.1500	-0.0150	0.0000
250	0.0230	0.0490	0.0460	-0.1510	-0.0130	0.0000
251	0.0210	0.0350	0.0100	-0.1490	-0.0140	0.0000
252	-0.0110	0.0260	-0.0210	-0.1500	-0.0160	0.0000
253	0.0070	0.0290	-0.0190	-0.1480	-0.0180	0.0000
254	-0.0060	0.0160	0.0110	-0.1470	-0.0170	0.0000
255	-0.0020	0.0290	0.0100	-0.1470	-0.0140	0.0000
256	-0.0060	0.0330	-0.0540	-0.1480	-0.0100	0.0000
257	-0.0090	0.0270	-0.0170	-0.1530	-0.0060	0.0000
258	0.0070	0.0380	0.0020	-0.1510	-0.0090	0.0000
259	0.0270	0.0230	0.0270	-0.1490	-0.0110	0.0000
260	0.0030	0.0310	0.0160	-0.1500	-0.0140	0.0000
261	-0.0190	0.0240	-0.0180	-0.1500	-0.0120	0.0000
262	-0.0110	0.0260	0.0120	-0.1490	-0.0170	0.0000
263	0.0030	0.0050	-0.0050	-0.1490	-0.0170	0.0000
264	-0.0220	0.0290	0.0260	-0.1450	-0.0190	0.0000
265	-0.0240	0.0250	-0.0250	-0.1480	-0.0150	0.0000
266	-0.0170	0.0340	-0.0620	-0.1540	-0.0140	0.0000
267	0.0030	0.0420	-0.0070	-0.1510	-0.0150	0.0000
268	0.0030	0.0150	-0.0340	-0.1490	-0.0170	0.0000
269	-0.0010	0.0180	-0.0420	-0.1490	-0.0110	0.0000
270	-0.0290	0.0260	-0.0180	-0.1470	-0.0130	0.0000
271	-0.0060	0.0610	0.0340	-0.1510	-0.0100	0.0000
272	-0.0070	0.0120	0.0000	-0.1510	-0.0100	0.0000
273	-0.0160	0.0080	0.0250	-0.1520	-0.0110	0.0000
274	0.0160	0.0330	0.0000	-0.1530	-0.0120	0.0000
275	-0.0100	0.0270	0.0230	-0.1550	-0.0170	0.0000
276	0.0100	0.0190	0.0230	-0.1570	-0.0150	0.0000
277	0.0330	-0.1150	-0.0110	-0.1500	-0.0130	0.0000
278	-0.0110	0.0210	-0.0120	-0.1560	-0.0120	0.0000
279	-0.0040	0.0210	-0.0190	-0.1570	-0.0120	0.0000
280	-0.0090	0.0300	-0.0180	-0.1580	-0.0120	0.0000
281	-0.0090	0.0300	-0.0180	-0.1580	-0.0120	0.0000
282	-0.0050	0.0420	-0.0570	-0.1610	-0.0150	0.0000
283	-0.0050	0.0420	-0.0570	-0.1610	-0.0150	0.0000
284	0.0070	0.0300	0.0540	-0.1650	-0.0220	0.0000
285	0.0070	0.0300	0.0540	-0.1650	-0.0220	0.0000
286	-0.0110	0.0280	-0.0010	-0.1650	-0.0180	0.0000
287	-0.0110	0.0280	-0.0010	-0.1650	-0.0180	0.0000
288	-0.0030	0.0370	0.0380	-0.1730	-0.0190	0.0000
289	0.0050	0.0400	-0.0490	-0.1700	-0.0190	0.0000
290	0.0050	0.0400	-0.0490	-0.1700	-0.0190	0.0000
291	0.0510	0.0200	0.5810	-0.1690	-0.0160	0.0000
292	-0.0080	0.0420	0.0540	-0.1680	-0.0230	0.0000
293	-0.0060	0.0320	0.0130	-0.1680	-0.0220	0.0000
294	0.0110	0.0310	-0.0250	-0.1690	-0.0250	0.0000
295	-0.0320	0.0370	-0.0060	-0.1680	-0.0250	0.0000
296	0.0110	0.0370	0.0030	-0.1700	-0.0250	0.0000
297	-0.0230	0.0320	-0.0390	-0.1680	-0.0250	0.0000
298	-0.0120	0.0310	-0.0220	-0.1670	-0.0240	0.0000
299	-0.0140	0.0210	-0.0300	-0.1670	-0.0230	0.0000
300	0.0190	0.0270	0.0300	-0.1690	-0.0200	0.0000
301	0.0020	0.0480	0.0300	-0.1660	-0.0230	0.0000
302	0.0040	0.0230	0.0210	-0.1650	-0.0210	0.0000
303	0.0200	0.0160	-0.0280	-0.1630	-0.0200	0.0000
304	-0.0500	0.0260	0.0010	-0.1620	-0.0190	0.0000
305	0.0430	0.0470	-0.0060	-0.1590	-0.0190	0.0000
306	0.0080	0.0490	0.0010	-0.1600	-0.0190	0.0000
307	-0.0170	0.0440	-0.0520	-0.1590	-0.0200	0.0000
308	-0.0160	0.0300	0.0090	-0.1590	-0.0240	0.0000
309	-0.0010	0.0500	-0.0060	-0.1570	-0.0220	0.0000
310	-0.0070	0.0320	0.0390	-0.1590	-0.0240	0.0000
311	-0.0160	0.0180	-0.0090	-0.1540	-0.0240	0.0000
312	-0.0220	0.0240	0.0140	-0.1530	-0.0240	0.0000
313	0.0160	0.0200	-0.0760	-0.1560	-0.0230	0.0000
314	0.0040	0.0230	-0.0040	-0.1570	-0.0180	0.0000
315	0.0070	0.0280	-0.0230	-0.1570	-0.0180	0.0000
316	-0.0220	0.0290	-0.0250	-0.1580	-0.0190	0.0000
317	0.0310	0.0340	-0.0330	-0.1570	-0.0180	0.0000
318	0.0020	0.0410	-0.0210	-0.1510	-0.0140	0.0000
319	-0.0360	0.0300	-0.0160	-0.1510	-0.0130	0.0000
320	-0.0160	0.0120	-0.0400	-0.1530	-0.0140	0.0000
321	0.1110	0.0150	-0.0190	-0.1540	-0.0140	0.0000
322	0.0240	0.0280	0.0280	-0.1540	-0.0130	0.0000
323	0.0150	0.0400	-0.0130	-0.1580	-0.0170	0.0000
324	-0.0120	0.0260	-0.0790	-0.1630	-0.0230	0.0000
325	0.0090	0.0110	-0.0030	-0.1650	-0.0180	0.0000
326	-0.0030	0.0160	0.0040	-0.1630	-0.0170	0.0000
327	0.0120	0.0290	-0.0010	-0.1620	-0.0190	0.0000
328	-0.0230	0.0200	0.0000	-0.1650	-0.0190	0.0000
329	-0.0200	0.0240	-0.0440	0.0000	-0.0190	0.0000
330	-0.0190	0.0430	0.0200	-0.1630	-0.0150	0.0000
331	-0.0010	0.0210	0.0230	-0.1630	-0.0150	0.0000
332	-0.0360	0.0440	-0.0150	-0.1590	2.7260	0.0000
333	0.0070	0.0250	0.0430	5.0000	2.7260	0.0000
334	-0.0330	0.0440	0.0180	-0.1600	-0.0110	0.0000
335	0.0270	0.0320	0.0618	-0.1600	-0.0110	0.0000
336	-0.0130	0.0290	-0.0590	-65.0000	-0.0090	0.0000
337	-0.0210	0.0400	-0.0180	-0.1600	-0.0170	0.0000
338	-0.0040	0.0340	7.0000	-0.1550	-0.0130	0.0000
339	0.0140	0.0304	7.0000	-0.1550	-0.0130	0.0000
340	0.0070	0.0300	-0.0200	-0.1580	-0.0120	0.0000
341	0.0170	0.0300	-0.0200	-0.1580	-0.0120	0.0000
342	0.0100	0.0440	-0.0230	-0.1650	-0.0160	0.0000
343	-10.0000	0.0440	-0.0230	-0.1650	-0.0160	0.0000
344	-0.0120	0.0230	-0.0480	-0.1680	-0.0160	0.0000
345	-0.0120	0.0230	-0.0480	-0.1680	-0.0160	0.0000
346	0.0060	0.0280	-0.0030	-0.1720	-0.0170	0.0000
347	0.0060	0.0490	0.0110	-0.1730	-0.0180	0.0000
348	-0.0120	0.0300	-0.0010	-0.1690	-0.0160	0.0000
349	-0.0050	0.0270	-0.0650	-0.1690	-0.0160	0.0000
350	0.0150	0.0240	-0.0270	-0.1720	-0.0220	0.0000
351	0.0070	0.0310	-0.0270	-0.1740	-0.0180	0.0000
352	0.0130	0.0460	0.0010	-0.1690	-0.0210	0.0000
353	-0.0030	0.0300	-0.0210	-0.1750	-0.0220	0.0000
354	0.0033	0.0270	-0.0360	-0.1780	-0.0200	0.0000
355	0.0020	0.0410	0.0430	-0.1830	-0.0190	0.0000
356	-8.0000	0.0250	-0.0100	-0.1850	-0.0150	0.0000
357	-0.0050	0.0390	-0.0220	-0.1810	-0.0100	0.0000
358	0.0060	0.0240	0.0030	-0.1810	-0.0100	0.0000
359	-0.0100	0.0270	-0.0160	-0.1800	-0.0100	0.0000
360	-0.0100	0.0420	0.0060	-0.1830	-0.0140	0.0000
361	-0.0180	0.0410	0.0000	-0.1790	-0.0120	0.0000
362	0.0100	0.0230	-0.0060	-0.1810	-0.0100	0.0000
363	0.0050	0.0420	-0.0460	-0.1840	-0.0110	0.0000
364	-0.0060	0.0510	0.0300	-0.1840	-0.0140	0.0000
365	-0.0170	0.0150	-0.0150	-0.1830	-0.0110	0.0000
366	-0.0030	0.0330	-0.0300	-0.1830	-0.0120	0.0000
367	0.0090	-0.0970	-0.0290	-0.1830	-0.0140	0.0000
368	-0.0020	0.0280	-0.0100	-0.1860	-0.0170	0.0000
369	0.0160	0.0410	-0.0270	-0.1880	-0.0160	0.0000
370	-0.0130	0.0130	-0.0270	-0.1880	-0.0170	0.0000
371	0.0010	0.0410	0.0020	-0.1880	-0.0190	0.0000
372	0.0040	0.0300	0.0020	-0.1850	-0.0220	0.0000
373	-0.0130	0.0340	-0.0030	-0.1860	-0.0190	0.0000
374	-0.0070	0.0350	0.0120	-0.1850	-0.0190	0.0000
375	-0.0260	0.0340	0.0030	-0.1900	-0.0180	0.0000
376	0.0070	0.0160	-0.0250	-0.1890	-0.0160	0.0000
377	0.0140	0.0250	0.0080	-0.1930	-0.0110	0.0000
378	-0.0010	0.0560	-0.0530	-0.1970	-0.0070	0.0000
379	0.0020	0.0470	0.0010	-0.1990	-0.0080	0.0000
380	-0.0100	0.0460	0.0000	-0.2000	-0.0060	0.0000
381	0.0070	0.0610	0.0030	-0.1960	-0.0090	0.0000
382	-0.0160	0.0280	0.0420	-0.1910	-0.0110	0.0000
383	-0.0130	0.0110	-0.0360	-0.1910	-0.0100	0.0000
384	-0.0110	0.0270	-0.0360	-0.1910	-0.0130	0.0000
385	-0.0450	0.0160	0.0000	-0.1950	-0.0150	0.0000
386	-0.0220	0.0480	0.0080	-0.1930	-0.0070	0.0000
387	0.0030	0.0350	-0.0190	-0.1920	-0.0070	0.0000
388	-0.0200	0.0260	0.0090	-0.1960	-0.0090	0.0000
389	0.0000	0.0180	0.0160	-0.1920	-0.0100	0.0000
390	-0.0320	0.0130	-0.0130	-0.1930	-0.0100	0.0000
391	-0.0050	0.0260	-0.0200	-0.1940	-0.0070	0.0000
392	-0.0030	0.0390	-0.0330	-0.1890	-0.0070	0.0000
393	-0.0030	0.0430	-0.0210	-0.1960	-0.0090	0.0000
394	-0.0320	0.0400	0.0360	-0.1950	-0.0100	0.0000
395	-0.0080	0.0450	0.0340	-0.1860	-0.0100	0.0000
396	-0.0220	0.0370	-0.0100	-0.1810	-0.0090	0.0000
397	-0.0020	0.0470	0.0010	-0.1810	-0.0110	0.0000
398	-0.0330	0.0360	-0.0190	-0.1750	-0.0080	0.0000
399	-0.0200	0.0290	-0.0640	-0.1750	-0.0060	0.0000
400	-0.0270	0.0270	-0.0330	-0.1750	-0.0060	0.0000
401	-0.0040	0.0430	0.0060	-0.1710	-0.0050	0.0000
402	0.0070	0.0170	0.0090	-0.1730	-0.0070	0.0000
403	-0.0040	0.0100	-0.0570	-0.1730	-0.0040	0.0000
404	-0.0090	0.0350	-0.0100	-0.1730	-0.0070	0.0000
405	-0.0080	0.0420	-0.0090	-0.1680	-0.0120	0.0000
406	-0.0100	0.0230	-0.0330	-0.2100	-0.0130	0.0000
407	-0.0100	0.0320	0.0510	-0.2100	-0.0100	0.0000
408	-0.0160	0.0240	-0.0370	-0.2050	-0.0110	0.0000
409	0.0000	0.0480	-0.0330	-0.2070	-0.0090	0.0000
410	-0.0140	0.0610	0.0410	-0.2080	-0.0040	0.0000
411	-0.0040	0.0450	0.0390	-0.2000	0.0000	0.0000
412	-0.0250	-0.0970	-0.0090	-0.2010	0.0040	0.0000
413	0.0040	0.0390	-0.0300	-0.2060	0.0040	0.0000
414	0.0020	0.0520	-0.0050	-0.2060	0.0060	0.0000
415	-0.0090	0.0540	-0.0230	-0.2040	0.0020	0.0000
416	-0.0060	0.0220	-0.0280	-0.2050	-0.0010	0.0000
417	0.0090	0.0180	-0.0230	-0.2040	0.0000	0.0000
418	0.0070	0.0500	0.0460	-0.2050	-0.0020	0.0000
419	-0.0160	0.0400	0.0220	-0.2010	-0.0040	0.0000
420	-0.0150	0.0470	-0.0480	-0.2000	-0.0030	0.0000
421	-0.0330	0.0360	0.0070	-0.1980	0.0030	0.0000
422	0.0180	0.0170	-0.0150	-0.1970	0.0060	0.0000
423	0.0000	0.0390	-0.0430	-0.2030	0.0070	0.0000
424	0.0110	0.0570	0.0270	-0.2060	0.0050	0.0000
425	-0.0080	0.0400	-0.0090	-0.2030	0.0010	0.0000
426	-0.0030	0.0350	-0.0020	-0.2030	0.0030	0.0000
427	-0.0200	0.0380	-0.0010	-0.2120	0.0080	0.0000
428	0.0100	0.0280	0.0130	-0.2130	0.0060	0.0000
429	0.0260	0.0370	-0.0270	-0.2180	0.0070	0.0000
430	0.0110	-0.1040	-0.0300	-0.2200	0.0090	0.0000
431	0.0030	0.0480	0.0160	-0.2250	0.0090	0.0000
432	0.0160	0.0480	-0.0400	-0.2260	0.0110	0.0000
433	0.0010	0.0410	-0.0020	-0.2270	0.0100	0.0000
434	-0.0100	0.0240	0.0640	-0.2210	0.0030	0.0000
435	0.0080	0.0500	0.0040	-0.2170	0.0040	0.0000
436	-0.0220	0.0260	0.0130	-0.2150	0.0020	0.0000
437	0.1210	0.0440	-0.0190	-0.2140	0.0110	0.0000
438	0.0170	0.1850	0.0020	-0.2110	0.0120	0.0000
439	0.0160	0.0410	-0.0350	-0.2110	0.0070	0.0000
440	-0.0090	0.0370	0.0240	-0.2090	0.0090	0.0000
441	-0.0240	0.0340	-0.0110	-0.2100	0.0100	0.0000
442	0.0380	0.0420	0.0030	-0.2110	0.0090	0.0000
443	0.0030	0.0400	-0.0010	-0.2140	0.0050	0.0000
444	-0.0120	0.0190	-0.0160	-0.2090	0.0010	0.0000
445	0.0160	0.0140	-0.0150	-0.2150	-0.0050	0.0000
446	-0.0060	0.0530	-0.0170	-0.2180	-0.0090	0.0000
447	0.0130	0.0380	0.0320	-0.2200	-0.0080	0.0000
448	-0.0300	0.0480	0.0030	-0.2200	-0.0030	0.0000
449	-0.0300	0.0570	-0.1090	-0.2200	-0.0030	0.0000
450	-0.0030	0.0400	-0.0300	-0.2180	-0.0030	0.0000
451	-0.0010	0.0650	0.0070	-0.2200	-0.0030	0.0000
452	-0.0140	0.0430	-0.0300	-0.2200	-0.0090	0.0000
453	0.0090	0.0310	0.0200	-0.2200	-0.0090	0.0000
454	0.0220	0.0240	-0.0320	-0.2180	-0.0090	0.0000
455	-0.0080	0.0190	-0.0690	-0.2210	-0.0060	0.0000
456	0.0260	0.0290	-0.0250	-0.2260	-0.0030	0.0000
457	-0.0220	0.0400	0.0430	-0.2290	-0.0060	0.0000
458	-0.0030	0.0330	-0.0680	-0.2290	-0.0040	0.0000
459	-0.0160	0.0340	-0.0070	-0.2330	-0.0080	0.0000
460	-0.0160	0.0330	-0.0050	-0.2340	-0.0080	0.0000
461	-0.0050	0.0280	-0.0130	-0.2390	-0.0060	0.0000
462	-0.0060	0.0320	-0.0480	-0.2330	-0.0030	0.0000
463	0.0040	0.0200	-0.0500	-0.2380	-0.0060	0.0000
464	0.0110	0.0610	0.0370	-0.2380	-0.0050	0.0000
465	-0.0130	0.0230	0.0460	-0.2370	-0.0080	0.0000
466	-0.0040	0.0240	0.0220	-0.2380	-0.0040	0.0000
467	0.0080	0.0430	-0.0300	-0.2400	0.0020	0.0000
468	0.0030	0.0410	-0.0540	-0.2350	0.0030	0.0000
469	0.0140	0.0500	0.0030	-0.2270	-0.0010	0.0000
470	-0.0070	0.0440	0.0140	-0.2270	-0.0010	0.0000
471	0.0090	0.0410	-0.0420	-0.2290	-0.0010	0.0000
472	-0.0010	0.0530	-0.0540	-0.2260	-0.0030	0.0000
473	0.0180	0.0580	-0.0100	-0.2250	-0.0010	0.0000
474	-0.0130	0.0390	0.0300	-0.2220	0.0020	0.0000
475	-0.0360	-0.0950	0.0550	-0.2280	0.0020	0.0000
476	0.0140	0.0410	0.0100	-0.2340	0.0000	0.0000
477	-0.0160	0.0660	-0.0220	-0.2370	-0.0050	0.0000
478	0.0040	0.0370	-0.0060	-0.2350	-0.0070	0.0000
479	-0.0220	0.0410	0.0010	-0.2360	-0.0080	0.0000
480	0.0000	0.0290	-0.0830	-0.2390	0.0400	0.0000
481	0.0090	0.0540	0.0380	-0.2400	0.0460	0.0000
482	0.0180	0.0290	0.0580	-0.2390	0.0420	0.0000
483	-0.0090	0.0550	-0.0090	-0.2390	0.0420	0.0000
484	-0.0250	0.1890	-0.0500	-0.2370	0.0430	0.0000
485	0.0310	0.0360	-0.0220	-0.2330	0.0410	0.0000
486	0.0080	0.0280	0.0090	-0.2380	0.0430	0.0000
487	0.0250	0.0340	-0.0160	-0.2390	0.0440	0.0000
488	0.0260	0.0340	0.0130	-0.2380	0.0400	0.0000
489	0.0040	0.0380	0.0420	-0.2330	0.0370	0.0000
490	0.0170	0.0370	0.0160	-0.2370	0.0380	0.0000
491	0.0250	0.0380	-0.0080	-0.2320	0.0390	0.0000
492	0.0130	0.1900	0.0010	-0.2360	0.0400	0.0000
493	0.0130	0.1900	0.0010	-0.2360	0.0400	0.0000
494	0.0120	0.0470	0.0160	-0.2290	0.0380	0.0000
495	0.0130	0.0390	-0.0020	-0.2280	0.0340	0.0000
496	0.0020	0.0410	-0.0550	-0.2330	0.0370	0.0000
497	-0.0140	0.0370	-0.0050	-0.2280	0.0380	0.0000
498	-0.0120	0.0220	-0.0330	-0.2300	0.0370	0.0000
499	-0.0150	0.0240	0.0270	-0.2290	0.0420	0.0000
500	0.0940	0.0150	-0.0270	-0.2230	0.0470	0.0000
501	0.0150	-0.0940	-0.0290	-0.2270	0.0400	0.0000
502	0.0000	0.0410	-0.0030	-0.2290	0.0490	0.0000
503	0.0110	0.0320	0.0230	-0.2310	0.0510	0.0000
504	0.0000	0.0350	-0.0380	-0.2320	0.0560	0.0000
505	0.0080	0.0560	0.0070	-0.2350	0.0590	0.0000
506	0.0250	0.0360	0.0280	-0.2280	0.0530	0.0000
507	0.0390	0.0610	0.0480	-0.2300	0.0540	0.0000
508	0.0140	0.0430	-0.0560	-0.2290	0.0580	0.0000
509	-0.0050	0.0530	-0.0370	-0.2290	0.0560	0.0000
510	0.0170	0.0410	0.0160	-0.2240	0.0590	0.0000
511	0.0210	0.0360	0.0210	-0.2230	0.0580	0.0000
512	0.0370	0.0280	-0.1030	-0.2280	0.0570	0.0000
513	0.0120	0.0150	-0.0020	-0.2250	0.0530	0.0000
514	-0.0010	0.0490	0.0230	-0.1840	0.0540	0.0000
515	-0.0100	0.0290	0.0130	-0.1850	0.0510	0.0000
516	-0.0040	0.0270	-0.0460	-0.1500	0.0510	0.0000
517	0.0000	0.0390	-0.0460	-0.1850	0.0540	0.0000
518	0.0340	0.0410	0.0210	0.0000	0.0540	0.0000
519	0.0360	0.0410	0.0070	-0.1850	0.0530	0.0000
520	-0.0120	0.0340	0.0240	-0.1820	0.0480	0.0000
521	-0.0070	0.0450	0.0250	-0.1900	0.0500	0.0000
522	0.0230	0.0400	0.0060	-0.1860	0.0550	0.0000
523	0.0290	0.0180	-0.0010	-0.1820	0.5200	0.0000
524	0.0020	0.0130	0.0190	-0.1790	0.0000	0.0000
525	-0.0040	0.0030	-0.0460	-0.1770	51.0000	0.0000
526	0.0190	0.0550	-0.0060	-0.1767	51.0000	0.0000
527	-0.0150	0.0400	0.0190	-0.1730	0.0490	0.0000
528	0.0020	0.0500	0.0370	-0.1773	0.0420	0.0000
529	-0.0170	0.1870	-0.0530	-0.1000	0.0420	0.0000
530	0.0100	0.0110	-0.0120	-0.1680	0.0430	0.0000
531	0.0240	0.0450	-0.0120	-0.1680	0.0430	0.0000
532	0.0180	0.0340	-0.0010	-0.1690	0.0390	0.0000
533	0.0180	0.0390	-0.0010	-0.1690	0.0390	0.0000
534	0.0180	0.0390	-0.0010	-0.1690	0.0390	0.0000
535	-0.0170	0.0350	-0.0440	-0.1630	0.0370	0.0000
536	0.0280	0.0290	0.0050	-0.1660	0.0350	0.0000
537	-0.0150	0.0330	-0.0330	-0.1670	0.0360	0.0000
538	-0.0170	0.0320	-0.0110	-0.1750	0.0360	0.0000
539	-0.0220	0.0390	0.0050	-0.1710	0.0380	0.0000
540	0.0090	0.0220	-0.0240	-0.1680	0.0420	0.0000
541	-0.0170	0.0390	-0.0280	-0.1690	0.0410	0.0000
542	-0.0210	0.0490	-0.0250	-0.1680	0.0410	0.0000
543	0.0040	0.0200	-0.0510	-0.1650	0.0420	0.0000
544	-0.0010	0.0300	0.0210	-0.1620	0.0410	0.0000
545	0.0000	0.0290	0.0270	-0.1630	0.0390	0.0000
546	-0.0030	0.0210	-0.0280	-0.1610	0.0400	0.0000
547	-0.0290	0.0540	0.0000	-0.1570	0.0380	0.0000
548	0.0130	0.0410	-0.0280	-0.1580	0.0390	0.0000
549	0.0230	0.0330	0.0050	-0.1590	0.0370	0.0000
550	-0.0060	0.0280	-0.0150	-0.1570	0.0360	0.0000
551	-0.0130	0.0080	-0.0210	-0.1600	0.0360	0.0000
552	0.0090	0.0520	-0.0270	-0.1600	0.0340	0.0000
553	0.0070	0.0330	0.0420	-0.1610	0.0360	0.0000
554	0.0270	0.0300	0.0190	-0.1540	0.0360	0.0000
555	-0.0180	0.0070	-0.0220	-0.1490	0.0360	0.0000
556	0.0060	0.0130	-0.0300	-0.1480	0.0380	0.0000
557	0.0160	0.0380	0.0090	-0.1490	0.0390	0.0000
558	0.0080	0.0160	-0.0190	-0.1400	0.0410	0.0000
559	0.0140	0.0160	0.0220	-0.1440	0.0410	0.0000
560	-0.0060	0.0300	0.0000	-0.1430	0.0430	0.0000
561	0.0150	0.0330	0.0110	-0.1460	0.0430	0.0000
562	0.0110	0.0260	0.0460	-0.1480	0.0400	0.0000
563	-0.0210	0.0230	0.0090	-0.1520	0.0430	0.0000
564	0.1210	0.0240	-0.0190	-0.1520	0.0450	0.0000
565	-0.0100	0.1750	-0.0270	-0.1520	0.0470	0.0000
566	0.0040	0.0270	0.0010	-0.1510	0.0480	0.0000
567	0.0060	0.0280	0.0000	-0.1540	0.0500	0.0000
568	0.0130	0.0090	-0.0160	-0.1590	0.0500	0.0000
569	0.0210	0.0160	-0.0140	-0.1630	0.0530	0.0000
570	0.0080	0.0450	0.0330	-0.1700	0.0590	0.0000
571	-0.0090	0.0330	-0.0160	-0.1720	0.0650	0.0000
572	0.0090	0.0240	-0.0120	-0.1700	0.0640	0.0000
573	0.0090	0.0240	-0.0120	-0.1700	0.0640	0.0000
574	0.0260	0.0450	0.0270	-0.1650	0.0640	0.0000
575	0.0260	0.0450	0.0270	-0.1650	0.0640	0.0000
576	0.0270	0.0280	0.0000	-0.1660	0.0640	0.0000
577	0.0270	0.0280	0.0000	-0.1660	0.0640	0.0000
578	0.0050	0.0580	0.0250	-0.1650	0.0550	0.0000
579	0.0050	0.0580	0.0250	-0.1650	0.0550	0.0000
580	-0.0570	0.0270	-0.0140	-0.1640	0.0540	0.0000
581	-0.0010	0.0520	0.0060	-0.1630	0.0530	0.0000
582	0.0260	0.0140	-0.0240	-0.1640	0.0580	0.0000
583	-0.0080	0.0520	-0.0350	-0.1670	0.0570	0.0000
584	-0.0270	0.0280	-0.1010	-0.1690	0.0600	0.0000
585	-0.0300	0.0500	-0.0320	-0.1700	0.0610	0.0000
586	0.0220	0.0270	-0.0270	-0.1690	0.0610	0.0000
587	0.0020	0.0490	-0.0110	-0.1700	0.0550	0.0000
588	0.0470	0.0480	-0.0020	-0.1700	0.0550	0.0000
589	0.0010	0.0290	-0.0110	-0.1620	0.0550	0.0000
590	0.0110	0.0220	0.0010	-0.1600	0.0540	0.0000
591	0.0050	0.0360	0.0210	-0.1580	0.0540	0.0000
592	0.0170	0.0240	-0.0370	-0.1590	0.0510	0.0000
593	-0.0150	0.0440	-0.0050	-0.1600	0.0490	0.0000
594	0.0060	0.0310	-0.0300	-0.1560	0.0490	0.0000
595	0.0050	0.0360	-0.0330	-0.1570	0.0530	0.0000
596	-0.0220	0.0210	-0.0100	-0.5700	0.0530	0.0000
597	-0.0190	0.0550	-0.0310	-0.1600	0.0580	0.0000
598	0.0340	0.0520	0.0600	0.0000	0.0580	0.0000
599	-0.0100	0.0290	0.0150	-0.1500	0.0190	0.0000
600	-0.0030	0.0280	-0.0010	-0.1500	0.0190	0.0000
601	-0.0340	0.1860	-0.0290	-0.1510	0.0230	0.0000
602	0.0060	0.0210	0.0003	-0.1510	0.0230	0.0000
603	-0.0120	0.0510	0.0040	-0.4400	0.0180	0.0000
604	0.0290	0.0130	0.0000	-0.4400	0.0180	0.0000
605	-0.0020	0.0250	0.0090	-0.1470	0.0230	0.0000
606	0.0260	0.0350	0.0090	-0.1470	0.0230	0.0000
607	-0.0080	0.0250	0.0430	-0.1520	0.0280	0.0000
608	0.0050	0.0525	0.0430	-0.1520	0.0280	0.0000
609	-0.1520	0.0360	0.0000	-0.1540	0.0320	0.0000
610	-0.0330	0.0340	-0.0360	-0.1530	0.0350	0.0000
611	0.0300	0.0340	-0.0360	-0.1530	0.0350	0.0000
612	0.0370	0.0330	-0.0160	-0.1560	0.0390	0.0000
613	-0.0360	0.0330	-0.0160	-0.1560	0.0390	0.0000
614	0.0250	0.0326	0.0020	-0.1540	0.0400	0.0000
615	0.0250	0.0326	0.0020	-0.1540	0.0400	0.0000
616	-0.0090	0.0500	0.0120	-0.1550	0.0040	0.0000
617	-0.0090	0.0500	0.0120	-0.1550	0.0040	0.0000
618	0.1290	0.0210	-0.0280	-0.1570	0.0050	0.0000
619	0.1290	0.0210	-0.0280	-0.1570	0.0050	0.0000
620	0.0020	0.0300	0.0090	-0.1570	-0.0080	0.0000
621	0.0020	0.0290	0.0050	-0.1560	-0.0110	0.0000
622	0.0130	0.0510	0.0100	-0.1610	-0.0120	0.0000
623	0.0120	0.0200	0.0150	-0.1610	-0.0160	0.0000
624	0.0090	0.0290	0.0210	-0.1630	-0.0200	0.0000
625	0.0090	0.0350	0.0340	-0.1640	-0.0230	0.0000
626	0.0260	0.0400	0.0190	-0.1640	-0.0240	0.0000
627	-0.0330	0.0240	-0.0470	-0.1690	-0.0240	0.0000
628	0.1130	0.0310	-0.0150	-0.1680	-0.0230	0.0000
629	0.0310	0.1750	-0.0130	-0.1590	-0.0280	0.0000
630	0.0380	0.0260	0.0110	-0.1560	-0.0260	0.0000
631	0.0070	0.0380	0.0100	-0.1600	-0.0290	0.0000
632	-0.0060	0.0410	0.0190	-0.1650	-0.0330	0.0000
633	-0.0340	0.0460	-0.0090	-0.1620	-0.0300	0.0000
634	-0.0090	0.0150	-0.0360	-0.1590	-0.0280	0.0000
635	-0.0060	0.0150	0.0000	-0.1590	-0.0270	0.0000
636	0.0310	0.0440	0.0180	-0.1610	-0.0240	0.0000
637	-0.0020	0.0500	-0.0080	-0.1620	-0.0240	0.0000
638	-0.0090	0.0000	0.0380	-0.1600	-0.0250	0.0000
639	0.0040	0.0270	-0.0140	-0.1550	-0.0240	0.0000
640	0.0010	0.0340	0.0150	-0.1530	-0.0230	0.0000
641	-0.0380	0.0220	-0.0220	-0.1540	-0.0300	0.0000
642	0.0030	0.0120	0.0020	-0.1600	-0.0203	0.0000
643	0.0180	0.0420	-0.0280	-0.1670	-0.2800	0.0000
644	-0.0050	0.0220	0.0020	-0.1650	-0.0260	0.0000
645	0.0330	0.0120	0.0050	-0.1650	-0.0290	0.0000
646	-0.0390	0.0360	0.0420	-0.1690	-0.0310	0.0000
647	-0.0310	0.0120	0.0030	-0.1690	-0.0240	0.0000
648	0.0060	0.0300	-0.0100	-0.1790	-0.0240	0.0000
649	-0.0060	0.0410	-0.0130	-0.1730	-0.1900	0.0000
650	-0.0290	0.0200	-0.0100	-0.1730	-0.1900	0.0000
651	0.0230	0.0270	0.0090	-0.1680	0.0000	0.0000
652	-0.0150	0.0440	-0.0240	-168.0000	0.0000	0.0000
653	-0.0200	0.0360	0.0220	-0.1700	-0.0200	0.0000
654	-0.0020	0.0120	0.0370	-0.1700	-0.0200	0.0000
655	-0.0190	0.0150	-0.0310	-0.1100	-0.0130	0.0000
656	0.0160	0.0670	0.0183	-0.1100	-0.0130	0.0000
657	0.0130	0.0130	-0.1800	-0.1730	-0.0140	0.0000
658	0.0170	0.0160	-0.0100	-0.1710	-0.0140	0.0000
659	0.0170	0.0160	-0.0100	-0.1710	-0.0140	0.0000
660	-0.0190	0.0240	-0.0030	-0.1740	-0.0180	0.0000
661	0.0030	0.0580	-0.0270	-0.1170	-0.0170	0.0000
662	0.0000	0.0300	0.0150	-0.1170	-0.0160	0.0000
663	-0.0210	0.0380	0.0490	-0.7100	-0.0150	0.0000
664	0.0070	0.0280	-0.0100	-0.1620	-0.0100	0.0000
665	-0.0280	0.0450	0.0040	-0.1580	-0.0080	0.0000
666	0.0250	0.0130	-0.0410	-0.1590	-0.0040	0.0000
667	-0.0550	0.0180	-0.0360	-0.2000	-0.0040	0.0000
668	-0.0060	0.0530	-0.0030	-0.2030	-0.0060	0.0000
669	0.0060	0.0590	0.0010	-0.2000	-0.0060	0.0000
670	-0.0210	0.0440	-0.0020	-0.2030	-3.0000	0.0000
671	-0.0150	0.0290	-0.0060	-0.2030	-3.0000	0.0000
672	0.0010	0.0490	-0.0420	-0.2043	-0.0020	0.0000
673	-0.0250	0.0360	-0.0300	-0.0040	0.7720	0.0000
674	-0.0020	0.0370	-0.0100	-0.2080	-0.0030	0.0000
675	0.0310	0.0470	-0.0012	-0.2130	-0.0050	0.0000
676	-0.0100	0.0430	0.0080	-0.2160	-0.0070	0.0000
677	-0.0090	0.0500	-6.0000	-0.2170	-0.0050	0.0000
678	-0.0100	0.0480	0.0140	-0.2190	-0.0050	0.0000
679	-0.0080	0.0350	0.0340	-0.2180	-0.0050	0.0000
680	0.0030	0.0405	0.0340	-0.2180	-0.0050	0.0000
681	-0.0150	0.0560	0.0040	-0.2290	0.0070	0.0000
682	0.0350	0.0490	-0.0210	-232.0000	0.0080	0.0000
683	0.0050	0.0170	-0.0210	-232.0000	0.0080	0.0000
684	0.0220	0.0430	0.0120	-0.2370	0.0050	0.0000
685	-0.0100	0.0430	0.0120	-0.2370	0.0050	0.0000
686	-0.0210	0.0570	-0.0090	-0.2360	0.0010	0.0000
687	-0.0070	0.0570	-0.0090	-0.2360	0.0010	0.0000
688	-0.0120	0.0210	-0.0210	-0.2420	-0.0090	0.0000
689	0.1250	0.0260	0.0100	-0.2490	-0.0080	0.0000
690	-0.0040	0.0300	-0.0490	-0.2550	-0.0040	0.0000
691	0.0324	0.0300	-0.0490	-0.2550	-0.0040	0.0000
692	-0.0200	0.0360	0.0240	-0.2540	-0.0040	0.0000
693	-0.0290	0.0560	-0.0150	-0.2600	-0.0040	0.0000
694	0.0000	0.0670	-0.0330	-0.2570	-0.0050	0.0000
695	0.0160	0.0410	-0.0060	-0.2590	-0.0020	0.0000
696	-10.0000	0.0150	0.0560	-0.2580	-0.0040	0.0000
697	0.0150	0.0460	-0.0380	-0.2600	-0.0030	0.0000
698	0.0150	0.0460	-0.0380	-0.2600	-0.0030	0.0000
699	-0.0080	0.0490	-0.0400	-0.2620	-0.0120	0.0000
700	-0.0010	0.0680	0.0250	-0.2580	-0.0120	0.0000
701	-0.0040	0.0390	0.0380	-0.2560	-0.0100	0.0000
702	-0.0050	0.0410	-0.0310	-0.2520	-0.0120	0.0000
703	0.0020	0.0370	-0.0180	-0.2530	-0.0090	0.0000
704	-0.0180	0.0260	-0.0030	-0.2520	-0.0090	0.0000
705	-0.0510	0.0530	-0.0340	-0.2550	-0.0080	0.0000
706	-0.0100	0.0550	-0.0340	-0.2570	-0.0030	0.0000
707	-0.0100	0.0440	0.0110	-0.2520	-0.0040	0.0000
708	0.0480	0.0490	0.0070	-0.2510	-0.0054	0.0000
709	-0.0330	0.0650	-0.0210	-0.2530	0.0000	0.0000
710	0.0000	0.0590	-0.1020	-0.2520	0.0000	0.0000
711	-0.0100	0.0290	0.0100	-0.2530	-0.0050	0.0000
712	-0.0160	0.0330	0.0300	-0.2530	-0.0050	0.0000
713	-0.0290	0.0380	-0.0520	-0.2530	0.0060	0.0000
714	-0.0170	0.0310	-0.0210	-0.2560	0.0060	0.0000
715	0.0330	0.0660	-0.0120	-0.2556	-0.0080	0.0000
716	0.0090	0.0810	-0.0090	-0.2580	-0.0050	0.0000
717	-0.0100	0.0510	0.0410	-0.2620	-0.0050	0.0000
718	-0.0010	0.0460	-0.0230	-0.2610	-0.0030	0.0000
719	0.0030	0.0580	-0.0140	0.0000	-0.0030	0.0000
720	-0.0060	0.0440	-0.0480	0.2600	-0.0060	0.0000
721	0.0040	0.0530	-0.0308	0.2600	-0.0060	0.0000
722	-0.0240	0.0350	0.0490	-0.2540	-0.0050	0.0000
723	0.0240	0.0440	-0.0490	-0.2560	-0.0010	0.0000
724	0.0080	0.0600	-0.0430	-0.2580	0.0040	0.0000
725	-0.0050	0.0340	-2.0000	-0.2610	0.0080	0.0000
726	0.0010	0.0430	0.0000	-0.2600	0.0070	0.0000
727	-0.0250	0.1840	0.0130	-0.2620	0.0100	0.0000
728	0.0240	0.0620	0.0000	-0.2610	0.0110	0.0000
729	0.0240	0.0490	-0.0310	-0.2630	0.0100	0.0000
730	-0.0280	0.0470	-0.0150	-0.2660	0.0150	0.0000
731	-0.0150	0.0710	-0.0230	-0.2660	0.0120	0.0000
732	-0.0100	0.0590	-0.0260	-0.2600	0.0120	0.0000
733	0.0060	0.0700	0.0060	-0.2580	0.0170	0.0000
734	-0.0140	0.0140	-0.0150	-0.2580	0.0150	0.0000
735	-0.0300	0.0410	-0.0280	-0.2590	0.0130	0.0000
736	0.0110	0.2030	-0.0110	-0.2580	0.0160	0.0000
737	0.0120	0.0370	-0.0080	-0.2520	0.0130	0.0000
738	0.0260	0.0520	-0.0480	-0.2550	0.0120	0.0000
739	-0.0110	0.0600	0.0460	-0.2980	0.0160	0.0000
740	0.0100	0.0540	-0.0280	-0.2950	0.0210	0.0000
741	0.0040	0.0670	-0.0410	-0.2960	0.0690	0.0000
742	0.0020	0.0740	0.0150	-0.2940	0.0700	0.0000
743	0.0560	0.0610	0.0500	-0.2940	0.0690	0.0000
744	0.0090	0.0480	0.0210	-0.2970	0.0740	0.0000
745	0.0110	0.2120	-0.0310	-0.2980	0.0760	0.0000
746	0.0240	0.0480	0.0030	-0.2910	0.0770	0.0000
747	0.0030	0.0740	-0.0160	-0.2950	0.0780	0.0000
748	0.0070	0.0470	0.0390	-0.2920	0.0750	0.0000
749	0.0240	0.0650	-0.0090	-0.2950	0.0750	0.0000
750	0.0340	0.0680	0.0140	-0.2970	0.0760	0.0000
751	0.0210	0.0580	0.0460	-0.2980	0.0770	0.0000
752	-0.0220	0.0490	-0.0320	-0.2990	0.0740	0.0000
753	0.1340	0.0740	-0.0140	-0.3000	0.0690	0.0000
754	0.0200	0.0520	0.0220	-0.3000	0.0640	0.0000
755	0.0430	0.0480	0.0240	-0.2980	0.0560	0.0000
756	-0.0020	0.0580	-0.0080	-0.2940	0.0510	0.0000
757	0.0310	0.0390	-0.0140	-0.2890	0.0560	0.0000
758	0.0280	0.0720	-0.0080	-0.2940	0.0590	0.0000
759	0.0010	0.0630	-0.0350	-0.2950	0.0570	0.0000
760	-0.0240	0.0420	-0.0450	-0.2970	0.0540	0.0000
761	-0.0140	0.0520	-0.0330	-0.2980	0.0500	0.0000
762	-0.0090	0.0340	-0.0280	-0.3040	0.0570	0.0000
763	0.0050	0.0610	0.0030	-0.3030	0.0610	0.0000
764	-0.0070	0.0490	0.0330	-0.3010	0.0610	0.0000
765	0.0200	0.0580	-0.0450	-0.3050	0.0630	0.0000
766	0.0320	0.0510	0.0070	-0.3080	0.0630	0.0000
767	0.0090	0.0520	-0.0220	-0.3050	0.0630	0.0000
768	0.0000	0.0440	-0.0030	-0.3070	0.0630	0.0000
769	-0.0360	0.0440	0.0080	-0.3110	0.0640	0.0000
770	0.0200	0.0490	-0.0260	-0.3040	0.0660	0.0000
771	-0.0040	0.0410	-0.0030	-0.3070	0.0640	0.0000
772	0.0360	0.0560	0.0270	-0.3080	0.0670	0.0000
773	-0.0090	0.0560	0.0090	-0.3020	0.0660	0.0000
774	0.0090	0.0530	0.0370	-0.3010	0.0660	0.0000
775	0.0100	0.0420	0.0100	-0.2980	0.0660	0.0000
776	0.0270	0.0640	-0.0180	-0.2950	0.0690	0.0000
777	0.0020	0.0500	0.0110	-0.3020	0.0710	0.0000
778	-0.0020	0.0500	-0.0580	-0.3020	0.0750	0.0000
779	0.0050	0.0670	-0.0140	-0.2990	0.0770	0.0000
780	-0.0050	0.0580	0.0180	-0.3020	0.0800	0.0000
781	-0.0010	0.0340	-0.0010	-0.3020	0.0780	0.0000
782	0.0030	0.1990	-0.0530	-0.3040	0.0820	0.0000
783	0.0150	0.0550	-0.0060	-0.3300	0.0820	0.0000
784	0.0270	0.0380	0.0090	-0.3020	0.0077	0.0000
785	-0.0320	0.0530	0.0130	-0.0200	0.0077	0.0000
786	-0.0030	0.0430	-0.0550	-0.3020	0.0820	0.0000
787	0.0050	0.0650	0.0240	0.0000	0.0820	0.0000
788	0.0040	0.0420	0.0060	-0.2990	0.0770	0.0000
789	0.0410	0.0650	-0.0100	-0.2990	0.0770	0.0000
790	0.0100	-0.0880	-0.0190	-304.0000	0.0650	0.0000
791	0.0540	0.0620	-0.0130	-0.3060	0.0650	0.0000
792	0.0160	0.0350	-0.0430	-0.3070	0.0630	0.0000
793	-0.0420	0.0700	-0.0290	0.3060	0.0610	0.0000
794	0.0170	0.0680	0.0190	9.0000	0.0610	0.0000
795	0.0160	0.0550	0.0000	9.0000	0.0610	0.0000
796	0.0400	0.0610	0.0106	-0.3160	0.0560	0.0000
797	-0.0070	0.0560	0.0000	-0.3200	0.0570	0.0000
798	-0.0170	0.0360	-5.0000	-0.3170	0.0510	0.0000
799	-0.0140	-0.0840	0.0460	-0.3220	0.0490	0.0000
800	0.0260	-0.0840	0.0460	-0.3220	0.0490	0.0000
801	0.0150	0.0620	0.1280	-0.3220	0.0520	0.0000
802	0.0050	0.0620	0.1280	-0.3220	0.0520	0.0000
803	0.0100	0.0440	0.0050	-0.2840	0.0530	0.0000
804	0.0100	0.0440	0.0050	-0.2840	0.0530	0.0000
805	-0.0020	53.0000	-0.0200	-0.2860	0.0480	0.0000
806	-0.0040	0.0410	-0.0170	-0.2850	0.0450	0.0000
807	0.0184	0.0410	-0.0170	-0.2850	0.0450	0.0000
808	0.0180	0.0400	-0.0270	-0.2860	0.0430	0.0000
809	0.0180	0.0540	-0.0350	-0.2900	0.0410	0.0000
810	0.0040	0.0450	0.0230	-0.2930	0.0400	0.0000
811	-0.1700	0.0570	-0.0140	-0.2940	0.0340	0.0000
812	-0.0170	0.0510	0.0270	-0.2880	0.0330	0.0000
813	0.0000	0.0410	-0.0050	-0.2900	0.0320	0.0000
814	0.0100	0.0420	0.0450	-0.2890	0.0330	0.0000
815	-0.0230	0.0580	-0.0240	-0.2890	0.0300	0.0000
816	-0.0120	0.0550	-0.0260	-0.2940	0.0310	0.0000
817	0.1050	0.0610	-0.0210	-0.2910	0.0330	0.0000
818	0.0100	-0.0910	0.0030	-0.2920	0.0340	0.0000
819	0.0130	0.0590	0.0030	-0.3010	0.0360	0.0000
820	0.0320	0.0470	-0.0050	-0.3030	0.0350	0.0000
821	-0.0160	0.0530	0.0330	-0.3020	0.0330	0.0000
822	0.0060	0.0470	0.0100	-0.3030	0.0340	0.0000
823	0.0070	0.0700	0.0450	-0.3050	0.0310	0.0000
824	0.0110	0.0430	0.0180	-0.2980	0.0290	0.0000
825	0.0370	0.0470	0.0010	-0.2980	0.0280	0.0000
826	0.0020	0.0610	-0.0360	-0.3010	0.0290	0.0000
827	-0.0050	0.0530	-0.0070	-0.3030	0.0280	0.0000
828	0.0020	0.0690	0.0120	-0.3080	0.0290	0.0000
829	0.0200	0.0580	0.0020	-0.3120	0.0350	0.0000
830	-0.0200	0.0540	-0.0240	-0.3080	0.0370	0.0000
831	-0.0210	0.0410	-0.0220	-0.3030	0.0380	0.0000
832	-0.0160	0.0600	0.0000	-0.3050	0.0350	0.0000
833	0.0310	0.0430	-0.0390	-0.3040	0.0370	0.0000
834	0.0000	0.0720	0.0100	-0.3040	0.0350	0.0000
835	0.0030	0.0440	0.0010	-0.3090	0.0380	0.0000
836	-0.0030	0.0550	0.0120	-0.3080	0.0340	0.0000
837	-0.0270	0.0530	0.0240	-0.3120	0.0290	0.0000
838	0.0090	0.0520	-0.0360	-0.3150	0.0310	0.0000
839	-0.0080	0.0760	0.0140	-0.3620	0.0270	0.0000
840	-0.0020	0.0670	-0.0200	-0.3570	0.0270	0.0000
841	0.0040	0.0630	-0.0380	-0.3530	0.0270	0.0000
842	-0.0140	0.0760	-0.0110	-0.3440	0.0260	0.0000
843	0.0130	0.0760	0.0380	-0.3460	0.0230	0.0000
844	0.0200	0.0660	0.0130	-0.3470	0.0220	0.0000
845	-0.0090	0.0670	-0.0630	-0.3480	0.0140	0.0000
846	-0.0040	0.0550	-0.0390	-0.3460	0.0210	0.0000
847	0.0100	0.0430	-0.0250	-0.3430	0.0230	0.0000
848	0.0350	0.0640	-0.0290	-0.3010	0.0180	0.0000
849	0.0120	0.0550	-0.0120	-0.3010	0.0170	0.0000
850	-0.0040	0.0620	-0.0460	-0.3030	0.0200	0.0000
851	0.0130	0.0700	0.0230	-0.3050	0.0230	0.0000
852	0.0140	0.0780	0.0130	-0.3070	0.0270	0.0000
853	0.0360	0.0240	-0.0090	-0.3100	0.0260	0.0000
854	-0.0300	0.0640	0.0410	-0.3140	0.0330	0.0000
855	0.0060	0.0480	-0.0130	-0.3100	0.0380	0.0000
856	-0.0030	0.0890	-0.0250	-0.3150	0.0350	0.0000
857	-0.0110	0.0430	-0.0020	-0.3140	0.0370	0.0000
858	0.0110	0.0760	-0.0050	-0.3110	0.0410	0.0000
859	0.0500	0.0520	0.0100	-0.3090	0.0440	0.0000
860	0.0280	0.0660	0.0260	-0.3110	0.0450	0.0000
861	0.0250	0.0580	0.0330	-0.3100	0.0440	0.0000
862	0.0080	0.0610	-0.0300	-0.3110	0.0430	0.0000
863	-0.0160	0.0570	-0.0190	-0.3100	0.0410	0.0000
864	0.0070	0.0430	-0.0330	-0.3120	0.0430	0.0000
865	0.0050	0.0620	-0.0060	-0.3110	0.0430	0.0000
866	-0.0030	0.0290	0.0150	-0.3110	0.0420	0.0000
867	0.0160	0.0580	-0.0210	-0.3060	0.0430	0.0000
868	0.0320	0.0650	-0.0440	-0.3060	0.0450	0.0000
869	0.0170	0.0720	0.0470	-0.3070	0.0460	0.0000
870	0.0320	0.0830	0.0200	-0.3080	0.0460	0.0000
871	0.0230	0.0390	-0.0010	-0.3040	0.0470	0.0000
872	0.0090	0.0570	-0.0380	-0.3000	0.0480	0.0000
873	-0.0110	0.0640	0.0290	-0.2980	0.0490	0.0000
874	0.0370	0.0600	-0.0630	-0.2970	0.0510	0.0000
875	-0.0250	0.0410	0.0190	-0.2980	0.0550	0.0000
876	0.0000	0.0510	-0.0300	-0.3020	0.0530	0.0000
877	-0.0200	0.0580	0.0120	-0.2940	0.0470	0.0000
878	0.0100	0.0530	-0.0120	-0.2940	0.0490	0.0000
879	0.0040	0.0300	-0.0150	-0.2930	0.0440	0.0000
880	-0.0080	0.0510	-0.0200	-0.2940	0.0410	0.0000
881	0.0080	0.0720	0.0150	-0.2950	0.0380	0.0000
882	-0.0260	0.0470	0.0300	-0.2980	0.0400	0.0000
883	-0.0090	0.0640	0.0190	-0.3000	0.0440	0.0000
884	0.0280	0.0460	0.0100	-0.3030	0.0450	0.0000
885	0.0090	0.0530	0.0370	-0.3010	0.0450	0.0000
886	-0.0230	0.0500	0.0030	-0.3020	0.0450	0.0000
887	-0.0130	0.0410	-0.0510	-0.2970	0.0470	0.0000
888	0.0030	0.0640	-0.0020	-0.2970	0.0510	0.0000
889	-0.0010	0.0610	0.0100	-0.3030	0.0540	0.0000
890	-0.0160	0.0690	0.0410	-0.3040	0.0540	0.0000
891	-0.0100	0.0390	0.0070	-0.3060	0.0490	0.0000
892	-0.0220	0.0490	0.0000	-0.3090	0.0550	0.0000
893	-0.0050	0.0550	0.0110	-0.3050	0.0540	0.0000
894	0.0250	0.0820	0.0480	-0.3080	0.0560	0.0000
895	0.0270	0.0430	0.0310	-0.3090	0.0570	0.0000
896	-0.0060	0.0460	-0.0160	-0.3150	0.0600	0.0000
897	0.0090	0.0570	0.0120	-0.3180	0.0640	0.0000
898	0.0260	0.0790	-0.0090	-0.3180	0.0620	0.0000
899	-0.0180	0.0750	0.0180	-0.3210	0.0630	0.0000
900	-0.0020	0.0650	0.0070	-0.3210	0.0640	0.0000
901	-0.0140	0.0590	-0.0330	-0.3190	0.0650	0.0000
902	0.0000	0.0570	-0.0210	-0.3160	0.0690	0.0000
903	0.0180	0.0570	0.0240	-0.3140	0.0690	0.0000
904	0.0050	0.0450	-0.0460	-0.3110	0.0700	0.0000
905	0.0010	0.0500	-0.0650	-0.3120	0.0690	0.0000
906	0.0110	0.0530	0.0120	-0.3180	0.0740	0.0000
907	0.0030	0.0500	0.0010	-0.3180	0.0690	0.0000
908	0.0230	0.0620	-0.0210	-0.3150	0.0680	0.0000
909	0.0230	0.0620	-0.0210	-0.3150	0.0680	0.0000
910	0.0040	0.0810	-0.0250	-0.3120	0.0650	0.0000
911	0.0270	0.0500	-0.0230	-0.3100	0.0670	0.0000
912	-0.0320	0.0680	0.0370	-0.3080	0.0690	0.0000
913	-0.0020	0.0460	-0.0160	-0.3040	0.0730	0.0000
914	0.0520	0.0710	-0.0230	-0.3110	0.0690	0.0000
915	0.0040	0.0570	0.0050	-0.3130	0.0700	0.0000
916	-0.0210	0.0590	0.0010	-0.3110	0.0700	0.0000
917	0.0160	0.0480	0.0000	-0.3080	0.0700	0.0000
918	-0.0330	0.0610	0.0140	-0.3100	0.0690	0.0000
919	0.0130	0.0410	-0.0050	-0.3090	0.0700	0.0000
920	0.0060	0.0360	0.0290	-0.3080	0.0720	0.0000
921	-0.0220	0.0540	-0.0020	-0.3180	0.0750	0.0000
922	0.0440	0.0640	0.0080	-0.3140	0.0717	0.0000
923	0.0010	0.0680	0.0560	-0.3120	0.0690	0.0000
924	0.0110	0.0780	0.0440	-0.3100	0.0790	0.0000
925	0.0280	0.0380	-0.0270	-0.3080	0.0700	0.0000
926	-0.0050	0.0620	0.1260	-71.0000	1.5820	0.0000
927	-0.0360	0.0420	-0.0140	0.0710	1.5640	0.0000
928	-0.0280	0.0570	0.0064	-0.3010	0.0760	0.0000
929	0.0260	0.0660	0.0156	-0.3040	0.0730	0.0000
930	0.0520	0.0620	-0.0500	-0.3000	0.0750	0.0000
931	-0.0230	0.0620	0.0260	-0.3000	0.0730	0.0000
932	-0.0010	0.0390	0.0030	-0.2990	0.0690	0.0000
933	0.0340	0.0460	-0.0120	-0.3000	0.0710	0.0000
934	0.0260	0.0650	-0.0360	-0.3000	0.0710	0.0000
935	0.0180	0.0520	0.0090	-0.2904	0.0660	0.0000
936	0.0110	0.0520	0.0090	-0.2904	0.0660	0.0000
937	0.0300	0.0500	-0.0510	-301.0000	0.0680	0.0000
938	-0.0080	0.0660	-51.0000	-301.0000	0.0680	0.0000
939	-0.0160	0.0570	-0.0100	-0.3030	0.0640	0.0000
940	0.0100	0.0670	-0.0100	-0.3030	0.0640	0.0000
941	0.0580	0.0430	-0.0100	-0.3030	0.0640	0.0000
942	0.0020	0.0530	0.0110	-0.3090	0.0680	0.0000
943	0.0020	0.0500	-0.0410	-0.3100	0.0660	0.0000
944	0.0070	0.0560	-0.0320	-0.3110	0.0670	0.0000
945	0.0140	0.0590	-0.0410	-0.3160	0.0660	0.0000
946	0.0330	0.0520	-0.0330	-0.3190	0.0710	0.0000
947	0.0270	0.0520	-0.0330	-0.3190	0.0710	0.0000
948	0.0070	0.0590	0.0070	-0.3250	0.0750	0.0000
949	-0.0800	0.0670	0.0320	-0.3230	0.0700	0.0000
950	0.0000	0.0510	-0.0250	-0.3210	0.0760	0.0000
951	0.0000	0.0510	-0.0250	-0.3210	0.0760	0.0000
952	0.0200	0.0470	0.0280	-0.3190	0.0840	0.0000
953	0.0580	0.0600	0.0280	-0.3190	0.0840	0.0000
954	0.0050	0.0520	-0.0250	-0.3150	0.0810	0.0000
955	-0.0030	0.0200	-0.0250	-0.3150	0.0810	0.0000
956	0.0060	0.0500	0.0000	-0.3150	0.0810	0.0000
957	0.0130	0.0500	0.0000	-0.3150	0.0810	0.0000
958	0.0230	0.0720	0.0500	-0.3110	0.0820	0.0000
959	0.0350	0.0720	0.0500	-0.3110	0.0820	0.0000
960	0.1250	0.0770	0.0200	-0.3090	0.0790	0.0000
961	0.0140	0.0730	-0.0020	-0.3040	0.0780	0.0000
962	-0.0400	0.0610	0.0160	-0.3080	0.0790	0.0000
963	0.0040	0.0630	0.0370	-0.3050	0.0760	0.0000
964	0.0090	0.0470	-0.0040	-0.3000	0.0780	0.0000
965	-0.0160	0.0710	-0.0150	-0.3030	0.0800	0.0000
966	-0.0010	0.0580	0.0170	-0.3010	0.0780	0.0000
967	0.0014	0.0650	0.0320	-0.2990	0.0760	0.0000
968	-0.0200	0.0330	-0.0430	-0.2980	0.0770	0.0000
969	0.0170	0.0000	-0.0170	-0.3020	0.0790	0.0000
970	0.0170	0.0000	-0.0170	-0.3020	0.0790	0.0000
971	-0.0040	0.0480	0.0230	-0.3080	0.0760	0.0000
972	-0.0040	0.0480	0.0230	-0.3080	0.0760	0.0000
973	-0.0130	0.0420	0.0250	-0.3080	0.0760	0.0000
974	0.0570	0.0450	-0.0210	-0.3070	0.0700	0.0000
975	0.0200	0.0650	0.0140	-0.3100	0.0000	0.0000
976	-0.0020	0.0750	-0.0210	-0.3100	1.3970	0.0000
977	0.0130	0.0650	0.0140	-0.3031	0.0680	0.0000
978	0.0500	0.0610	0.0500	-0.3060	0.0660	0.0000
979	-0.0110	0.0610	-0.0400	-4.0000	0.0630	0.0000
980	-0.0380	0.0530	0.0250	-0.3000	0.0650	0.0000
981	-0.0110	0.0670	0.0310	-0.2960	0.0650	0.0000
982	0.0330	0.0410	0.0090	-0.2960	0.0650	0.0000
983	0.0080	0.0740	0.0000	-0.2960	0.0650	0.0000
984	0.0260	0.0610	-0.0030	-0.3010	0.0660	0.0000
985	0.0290	0.0650	0.0019	-0.3000	0.0680	0.0000
986	0.0280	0.0600	0.0420	-0.3010	0.0730	0.0000
987	0.0180	0.0570	-0.0330	0.3030	0.0760	0.0000
988	-0.0280	0.0400	0.0330	0.3030	0.0760	0.0000
989	0.0110	0.0470	0.0330	0.3030	0.0760	0.0000
990	0.0240	0.0670	-0.0090	-0.3090	0.0780	0.0000
991	-0.0040	0.0700	-0.0300	-0.3080	0.0760	0.0000
992	0.0020	0.0000	-0.0180	-0.3060	0.0750	0.0000
993	0.0020	0.0000	-0.0180	-0.3060	0.0750	0.0000
994	0.0280	0.0660	0.0470	-0.3060	0.0770	0.0000
995	-0.0110	0.0590	-0.0100	0.0820	1.3600	0.0000
996	0.0010	0.0500	-0.0015	-0.3030	0.0760	0.0000
997	-0.0050	0.0600	-0.3000	-0.3020	0.0790	0.0000
998	0.0270	0.0490	0.0000	-0.3040	0.0810	0.0000
999	0.0120	0.0680	-0.0240	-0.3000	0.0840	0.0000
1000	0.0260	0.0460	-0.0110	-0.3010	0.0800	0.0000
1001	-0.0110	0.0600	-0.3030	0.0810	1.2780	0.0000
1002	0.0140	0.0660	0.0050	-0.3030	0.0810	0.0000
1003	0.0030	0.0400	-0.0040	-0.3030	0.0780	0.0000
1004	0.0190	0.0450	0.0210	-0.3000	0.0760	0.0000
1005	0.0090	0.0490	0.0120	-0.3060	0.0760	0.0000
1006	0.0290	0.0560	-0.0040	-0.3080	0.0770	0.0000
1007	0.0020	0.0730	-0.0370	-0.3060	0.0790	0.0000
1008	-0.0060	0.0500	-0.0370	-0.3060	0.0790	0.0000
1009	0.0060	0.0458	-0.0150	-0.3110	0.0830	0.0000
1010	0.0320	0.0490	-0.0030	-0.3080	0.0900	0.0000
1011	0.0110	0.0530	0.0060	-0.3090	0.0840	0.0000
1012	0.0220	0.0510	0.0040	-0.3110	0.0770	0.0000
1013	0.0130	0.0510	0.0050	-0.3080	0.0800	0.0000
1014	-0.0030	-0.0210	-0.3060	0.0810	1.6590	0.0000
1015	0.0403	0.0470	-0.0390	-0.3090	0.0810	0.0000
1016	0.0420	0.0640	0.0170	-0.3080	0.0810	0.0000
1017	0.0140	0.0620	0.0080	-0.3100	0.0800	0.0000
1018	-45.0000	0.0650	-0.0810	-0.3010	0.0790	0.0000
1019	-0.0170	0.0510	-0.0240	-0.3010	0.0770	0.0000
1020	0.0130	0.0590	0.0320	-0.3030	0.0790	0.0000
1021	0.0390	0.0500	0.0370	-0.3000	0.0770	0.0000
1022	0.0010	0.0600	-0.0370	-0.2980	0.0750	0.0000
1023	0.1300	0.0410	-0.0230	-0.3000	0.0710	0.0000
1024	0.0120	0.0480	0.0230	-0.3000	0.0670	0.0000
1025	0.0060	0.0600	0.0290	-0.3030	0.0700	0.0000
1026	0.0120	0.0490	0.0160	-0.3040	0.0710	0.0000
1027	-0.0110	0.0580	0.0220	-0.3000	0.0720	0.0000
1028	0.0140	0.0610	0.0290	-0.3000	0.0690	0.0000
1029	0.0120	0.0360	0.0160	-0.2980	0.0650	0.0000
1030	-0.0050	0.0500	-0.0180	-0.2990	0.0630	0.0000
1031	-0.0010	0.0420	-0.0310	-0.2950	0.0590	0.0000
1032	0.0020	0.0690	0.0290	-0.3000	0.0590	0.0000
1033	0.0030	0.0630	0.0340	-0.2990	0.0600	0.0000
1034	0.0340	0.0480	0.0410	-0.3020	0.0640	0.0000
1035	-0.0130	0.0490	0.0360	-0.3040	0.0660	0.0000
1036	-0.0090	0.0580	-0.0180	-0.3040	0.0620	0.0000
1037	0.0130	0.0600	-0.0170	-0.3050	0.0650	0.0000
1038	-0.0020	0.0590	-0.0030	-0.3080	0.0660	0.0000
1039	-0.0110	0.0270	-0.0360	-0.3060	0.0660	0.0000
1040	0.0390	0.0590	0.0020	-0.3050	0.0700	0.0000
1041	0.0170	0.0570	0.0190	-0.3020	0.0710	0.0000
1042	0.0350	0.0530	0.0150	-0.2960	0.0740	0.0000
1043	-0.0160	0.1970	0.0210	-0.2990	0.0790	0.0000
1044	-0.0220	0.0510	-0.0400	-0.2910	0.0840	0.0000
1045	0.0150	0.0670	0.0160	-0.2930	0.0860	0.0000
1046	0.0210	0.0480	0.0060	-0.2930	0.0820	0.0000
1047	0.0110	0.0620	-0.0770	-0.2960	0.0850	0.0000
1048	0.0310	0.0760	-0.0260	-0.2970	0.1330	0.0000
1049	0.0400	0.0710	0.0060	-0.2920	0.1300	0.0000
1050	0.0090	0.0640	0.0260	-0.2930	0.1270	0.0000
1051	0.0200	0.0720	-0.0200	-0.2940	0.1300	0.0000
1052	0.0110	0.0520	-0.0460	-0.2930	0.1260	0.0000
1053	0.0120	0.0470	-0.0170	-0.2960	0.1290	0.0000
1054	0.0220	0.0650	-0.0600	-0.2940	0.1320	0.0000
1055	-0.0020	0.0370	-0.0080	-0.2910	0.1360	0.0000
1056	0.0270	0.0470	-0.0350	-0.2870	0.1390	0.0000
1057	0.0260	0.0450	-0.0380	-0.2870	0.1410	0.0000
1058	0.0290	0.0730	0.0200	-0.2830	0.1450	0.0000
1059	0.0240	0.0320	0.0040	-0.2830	0.1450	0.0000
1060	0.0420	0.0450	-0.0300	-0.2830	0.1450	0.0000
1061	0.0110	-0.0890	-0.0080	-0.2850	0.1450	0.0000
1062	0.0120	0.0430	-0.0130	-0.2910	0.1410	0.0000
1063	-0.0110	0.0650	-0.0410	-0.2930	0.1410	0.0000
1064	0.0370	0.0460	-0.0430	-0.2980	0.1470	0.0000
1065	0.0050	0.0680	-0.0220	-0.2940	0.1450	0.0000
1066	0.0250	0.0340	0.0030	-0.2970	0.1430	0.0000
1067	-0.0220	0.0220	-0.0220	-0.2960	0.1430	0.0000
1068	0.0140	0.0460	0.0440	-0.2940	0.1470	0.0000
1069	0.0180	0.0400	-0.0600	-0.2960	0.1460	0.0000
1070	0.0360	0.0550	0.0000	-0.3000	0.1460	0.0000
1071	0.0600	0.0470	0.0280	-0.3010	0.1460	0.0000
1072	0.0660	0.0120	-0.0410	-0.2990	0.1350	0.0000
1073	0.0360	0.0550	-0.0390	-0.2980	0.1270	0.0000
1074	0.0170	0.0450	-0.0090	-0.2960	0.1180	0.0000
1075	0.0320	0.0550	0.0200	-0.3000	0.1170	0.0000
1076	0.0180	0.0450	-0.0480	-0.3020	0.1160	0.0000
1077	0.0060	0.0260	-0.0190	-0.3040	0.1160	0.0000
1078	0.0050	0.0560	-0.0020	-0.3050	0.1140	0.0000
1079	0.0490	0.0420	0.0300	-0.3040	0.1140	0.0000
1080	0.0040	0.0680	-0.0210	-0.3020	0.1170	0.0000
1081	-0.0020	0.0640	-0.0090	-0.3030	0.1130	0.0000
1082	0.0250	0.0460	0.0330	-0.3000	0.1120	0.0000
1083	0.0320	0.0710	-0.0040	-0.3010	0.1090	0.0000
1084	0.0050	0.0330	0.0400	-0.3010	0.1100	0.0000
1085	-0.0020	0.0280	-0.0240	-0.3020	0.1030	0.0000
1086	0.0160	0.0560	-0.0370	-0.2970	0.1080	0.0000
1087	0.0260	0.0700	0.0410	-0.2980	0.1090	0.0000
1088	0.0600	0.0570	0.0180	-0.2950	0.1070	0.0000
1089	0.0090	0.0660	-0.0310	-0.2900	0.1060	0.0000
1090	0.0120	0.0550	-0.0180	-0.2890	0.1060	0.0000
1091	0.0350	0.0590	0.0380	-0.2910	0.1080	0.0000
1092	0.0320	0.0600	0.0100	-0.2930	0.1070	0.0000
1093	0.0110	0.0480	0.0010	-0.2930	0.1050	0.0000
1094	-0.0030	0.0440	-0.0210	-0.2950	0.1030	0.0000
1095	0.0140	0.0630	0.0120	-0.2930	0.1030	0.0000
1096	0.0090	0.0440	0.0270	-0.2950	0.1070	0.0000
1097	0.0400	0.0420	0.0160	-0.2960	0.1100	0.0000
1098	0.0190	0.0390	0.0370	-0.2950	0.1060	0.0000
1099	0.0190	0.0680	-0.0020	-0.2960	0.1060	0.0000
1100	0.0210	0.0530	0.0320	-0.2910	0.1100	0.0000
1101	0.0280	0.0320	0.0220	-0.2890	0.1090	0.0000
1102	0.0100	0.0280	-0.0210	-0.2880	0.1050	0.0000
1103	0.0400	0.0540	-0.0300	-0.2890	0.1000	0.0000
1104	0.0200	0.0670	0.0360	-0.2890	0.0990	0.0000
1105	0.0260	0.0400	0.0150	-0.2980	0.0980	0.0000
1106	0.0210	0.0550	-0.0490	-0.3000	0.0990	0.0000
1107	0.0060	0.0420	0.0070	-0.2980	0.1010	0.0000
1108	-0.0160	0.0590	0.0240	-0.2990	0.1030	0.0000
1109	0.0360	0.0600	0.0220	-0.2990	0.1060	0.0000
1110	0.0120	0.0480	-0.0110	-0.3030	0.1070	0.0000
1111	-0.0160	0.0470	0.0180	-0.3030	0.1050	0.0000
1112	0.0210	0.0630	0.0150	-0.3010	0.1060	0.0000
1113	0.0340	0.0600	0.0190	-0.2990	0.1050	0.0000
1114	0.0580	0.0470	-0.0140	-0.2980	0.1020	0.0000
1115	0.0480	0.0520	-0.0210	-0.2950	0.1020	0.0000
1116	-0.0010	0.0470	-0.0090	-0.2960	0.0980	0.0000
1117	0.0160	0.0720	0.0140	-0.2930	0.0940	0.0000
1118	0.0180	0.0580	-0.0090	-0.2950	0.0910	0.0000
1119	0.0300	0.0420	-0.0120	-0.2970	0.0890	0.0000
1120	0.0300	0.0420	-0.0120	-0.2970	0.0890	0.0000
1121	0.0230	0.0730	0.0190	-0.2930	0.0940	0.0000
1122	-0.0170	0.0430	-0.0130	-0.2900	0.0930	0.0000
1123	0.0360	0.0430	-0.0220	-0.2900	0.0920	0.0000
1124	0.0310	0.0550	-0.0290	-0.2910	0.0910	0.0000
1125	0.0300	0.0550	-0.0440	-0.2910	0.0920	0.0000
1126	0.0400	0.0590	-0.0170	-0.2900	0.0900	0.0000
1127	0.0070	0.0530	-0.0190	-0.2900	0.0900	0.0000
1128	-0.0040	0.0300	-0.0030	-0.2900	0.0880	0.0000
1129	0.0010	0.0420	0.0250	-0.2890	0.0860	0.0000
1130	0.0360	0.0680	0.0230	-0.2880	0.0880	0.0000
1131	-0.0210	0.0470	-0.0150	-0.2860	0.0820	0.0000
1132	0.0020	0.0510	-0.0530	-0.2880	0.0830	0.0000
1133	-0.0030	0.0360	-0.0350	-0.2810	0.0830	0.0000
1134	0.0500	0.0510	-0.0040	-0.2810	0.0890	0.0000
1135	-0.0190	0.0470	-0.0310	-0.2820	0.0860	0.0000
1136	0.0280	0.0390	-0.0330	-0.2850	0.0860	0.0000
1137	0.0140	0.0390	-0.0280	-0.2850	0.0820	0.0000
1138	0.0490	0.0490	0.0400	-0.2830	0.0850	0.0000
1139	-0.0060	0.0430	0.0180	-0.2780	0.0770	0.0000
1140	0.0130	0.0350	-0.0360	-0.2750	0.0790	0.0000
1141	0.0100	0.0370	-0.0240	-0.2770	0.0740	0.0000
1142	-0.0230	0.0490	-0.0140	-0.2770	0.0760	0.0000
1143	0.0040	0.0440	-0.0350	-0.2780	0.0820	0.0000
1144	0.0150	0.0530	0.0110	-0.2740	0.0870	0.0000
1145	-0.0010	0.0360	0.0320	-0.2740	0.0840	0.0000
1146	0.0180	0.0260	0.0110	-0.2800	0.0830	0.0000
1147	0.0110	0.0750	0.0490	-0.2810	0.0850	0.0000
1148	0.0130	0.0670	-0.0050	-0.2770	0.0820	0.0000
1149	0.0090	0.0450	-0.0340	-0.2760	0.0810	0.0000
1150	0.1280	0.0520	-0.0320	-0.2770	0.0860	0.0000
1151	0.0270	0.0350	-0.0120	-0.2830	0.0860	0.0000
1152	0.0110	0.0820	-0.0300	-0.2870	0.0870	0.0000
1153	0.0140	0.0630	0.0010	-0.2840	0.0860	0.0000
1154	0.0020	0.0740	-0.0030	-0.2850	0.0820	0.0000
1155	0.0320	0.0570	0.0010	-0.2780	0.0830	0.0000
1156	0.0150	0.0570	0.0310	-0.2740	0.0810	0.0000
1157	0.0150	0.0550	0.0250	-0.2770	0.0820	0.0000
1158	-0.0050	0.0440	-0.0370	-0.2770	0.0760	0.0000
1159	-0.0090	0.0520	0.0160	-0.2770	0.0760	0.0000
1160	0.0140	0.0460	0.0100	-0.2750	0.0770	0.0000
1161	0.0200	0.2100	-0.0260	-0.2790	0.0810	0.0000
1162	0.0570	0.0490	-0.0080	-0.2750	0.0830	0.0000
1163	-0.0230	0.0610	-0.0060	-0.2770	0.0800	0.0000
1164	0.0230	0.0670	-0.0140	-0.2770	0.0810	0.0000
1165	0.0210	0.0640	0.0100	-0.2790	0.0760	0.0000
1166	0.0150	0.0290	-0.0210	-0.2770	0.0730	0.0000
1167	0.0230	0.0490	0.0360	-0.2790	0.0710	0.0000
1168	0.0110	0.0690	0.0060	-0.2810	0.0710	0.0000
1169	0.0220	0.0660	-0.0380	-0.2790	0.0760	0.0000
1170	0.0150	0.0470	0.0130	-0.2660	0.0770	0.0000
1171	-0.0090	0.0410	0.0250	-0.2680	0.0730	0.0000
1172	0.0180	0.0440	-0.0170	-0.2650	0.0750	0.0000
1173	0.0060	0.0340	-0.0210	-0.2650	0.0710	0.0000
1174	-0.0160	0.0290	-0.0480	-0.2680	0.0730	0.0000
1175	0.0190	0.0450	0.0060	-0.2670	0.0730	0.0000
1176	0.0040	0.0490	0.0490	-0.2690	0.0750	0.0000
1177	-0.1580	0.0470	-0.0140	-0.2750	0.0760	0.0000
1178	-0.0100	-0.0850	-0.0300	-0.2720	0.0810	0.0000
1179	-0.0120	0.0380	0.0280	-0.2750	0.0790	0.0000
1180	-0.0020	0.0530	0.0370	-0.2760	0.0800	0.0000
1181	0.0280	0.0450	-0.0290	-0.2730	0.0780	0.0000
1182	-0.0170	0.0470	0.0160	-0.2730	0.0730	0.0000
1183	0.0120	0.0460	-0.0020	-0.2780	0.1200	0.0000
1184	0.0190	0.0520	0.0130	-0.2760	0.1250	0.0000
1185	0.0300	0.0560	0.0470	-0.2810	0.1260	0.0000
1186	0.0520	0.0420	0.0040	-0.2830	0.1290	0.0000
1187	0.0220	0.0450	-0.0200	-0.2810	0.1260	0.0000
1188	0.0270	0.0520	0.0150	-0.2800	0.1240	0.0000
1189	0.0270	0.0690	-0.0240	-0.2770	0.1200	0.0000
1190	0.0410	0.0410	-0.0120	-0.2760	0.1220	0.0000
1191	0.0270	0.0510	-0.0230	-0.2730	0.1210	0.0000
1192	0.0300	0.0420	0.0190	-0.2730	0.1220	0.0000
1193	0.0420	0.0560	0.0300	-0.2720	0.1220	0.0000
1194	0.0300	0.0610	0.0360	-0.2680	0.1220	0.0000
1195	0.0270	0.0430	-0.0320	-0.2660	0.1200	0.0000
1196	0.0060	0.0380	0.0210	-0.2680	0.1210	0.0000
1197	0.0070	0.0480	-0.0140	-0.2710	0.1220	0.0000
1198	0.0470	0.0540	-0.0170	-0.2720	0.1230	0.0000
1199	0.0270	0.0470	-0.0310	-0.2670	0.1210	0.0000
1200	0.0360	0.0440	-0.0120	-0.2680	0.1190	0.0000
1201	0.0350	0.0550	-0.0070	-0.2710	0.1200	0.0000
1202	0.0210	0.0520	0.0320	-0.2760	0.1200	0.0000
1203	-0.0160	0.0510	0.0150	-0.2790	0.1160	0.0000
1204	-0.0020	0.0610	-0.0480	-0.2790	0.1160	0.0000
1205	0.0310	0.0720	0.0190	-0.2770	0.1170	0.0000
1206	0.0000	0.0330	0.0000	-0.2740	0.1180	0.0000
1207	0.0430	0.0350	-0.0350	-0.2700	0.1200	0.0000
1208	0.0010	0.0370	-0.0250	-0.2740	0.1210	0.0000
1209	0.0180	0.0600	0.0040	-0.2710	0.1200	0.0000
1210	0.0110	0.0380	0.0170	-0.2710	0.1210	0.0000
1211	0.0330	0.0490	0.0450	-0.2700	0.1240	0.0000
1212	-0.0020	0.0700	0.0000	-0.2760	0.1240	0.0000
1213	0.0160	0.0670	-0.0050	-0.2740	0.1220	0.0000
1214	0.0210	0.0430	-0.0010	-0.2750	0.1250	0.0000
1215	0.0080	0.0580	0.0060	-0.2710	0.1250	0.0000
1216	0.0290	0.0770	-0.0040	-0.2730	0.1260	0.0000
1217	-0.0060	0.0390	-0.0080	-0.2700	0.1280	0.0000
1218	0.0240	0.0310	0.0080	-0.2670	0.1250	0.0000
1219	0.0110	0.0740	0.0080	-0.2660	0.1240	0.0000
1220	-0.0100	0.0280	-0.0190	-0.2660	0.1240	0.0000
1221	-0.0120	0.0480	-0.0310	-0.2690	0.1350	0.0000
1222	0.0390	0.0590	0.0230	-0.2710	0.1340	0.0000
1223	0.0050	0.2100	0.0430	-0.2720	0.1330	0.0000
1224	0.0330	0.0550	-0.0850	-0.2660	0.1300	0.0000
1225	-0.0050	0.0540	0.0120	-0.2650	0.1290	0.0000
1226	-0.0120	0.0490	-0.0130	-0.3110	0.1320	0.0000
1227	0.0310	0.0750	0.0320	-0.3090	0.1340	0.0000
1228	0.0150	0.0370	-0.0520	-0.3060	0.1360	0.0000
1229	0.0530	0.0260	-0.0270	-0.3030	0.1360	0.0000
1230	0.0070	0.0730	0.0220	-0.3030	0.1360	0.0000
1231	0.0390	0.0470	0.0240	-0.3020	0.1380	0.0000
1232	0.0410	0.0540	0.0220	-0.3090	0.1480	0.0000
1233	0.0060	0.0390	-0.0020	-0.3090	0.4000	0.0000
1234	0.0170	0.0580	0.0240	-0.3070	0.0000	0.0000
1235	0.0090	0.0710	0.0030	-0.3130	0.1460	0.0000
1236	0.0180	0.0680	0.0170	-0.3120	0.1430	0.0000
1237	0.0040	0.0580	-0.0120	-0.3000	0.1430	0.0000
1238	0.0180	0.0380	-0.0360	-0.3050	0.1480	0.0000
1239	0.0370	0.0380	0.0100	-0.3004	0.1470	0.0000
1240	0.0320	0.0710	0.0350	-0.3010	0.1480	0.0000
1241	0.0600	0.0480	-0.0210	-300.0000	0.1500	0.0000
1242	0.0540	0.0440	-0.0320	-0.2980	0.1480	0.0000
1243	0.0350	0.0430	-0.0220	-0.3010	0.1470	0.0000
1244	0.0150	0.0650	-0.0440	-0.3010	0.1470	0.0000
1245	0.0040	0.0540	-0.0240	-0.3080	0.1470	0.0000
1246	0.0340	0.0500	-0.0200	-0.3020	0.1460	0.0000
1247	0.0260	0.0710	0.0033	-0.2990	0.1480	0.0000
1248	0.0330	0.0710	0.0370	-0.3020	0.1470	0.0000
1249	0.0710	0.0630	-0.0290	-0.3030	0.1500	0.0000
1250	0.0110	0.0390	-0.0130	-0.2970	0.1530	0.0000
1251	0.0000	0.0530	-0.0130	-0.2970	0.1530	0.0000
1252	0.0000	0.0430	0.0050	-0.2910	0.1580	0.0000
1253	0.0100	0.0470	0.0250	-0.2910	0.1590	0.0000
1254	0.0100	0.0610	-0.0090	-0.2890	0.1550	0.0000
1255	0.0350	0.0570	-0.0290	-0.2860	0.1550	0.0000
1256	0.0290	0.0460	0.0520	-0.2840	0.1550	0.0000
1257	0.0270	0.0460	0.0520	-0.2840	0.1550	0.0000
1258	0.0270	0.0680	-0.0130	-0.2870	0.1570	0.0000
1259	0.0250	0.0450	-0.0130	-0.2890	0.1580	0.0000
1260	0.0320	0.0540	0.0020	-0.2840	0.1560	0.0000
1261	0.0390	0.0390	0.0000	-0.2820	0.1560	0.0000
1262	0.0560	0.0600	0.0220	-0.2840	0.1570	0.0000
1263	0.0020	0.0620	-0.0260	-0.2820	0.1590	0.0000
1264	0.0190	0.0490	-0.0570	-0.2810	0.1560	0.0000
1265	0.0430	0.0640	0.0310	-0.2830	0.1530	0.0000
1266	0.0520	0.0490	0.0060	-0.2810	0.1480	0.0000
1267	0.0220	0.0440	0.0190	-0.2790	0.1440	0.0000
1268	0.0200	0.0420	-0.0500	-0.2800	0.1420	0.0000
1269	0.0050	0.0440	-0.0190	-0.2800	0.1360	0.0000
1270	0.0400	0.0480	-0.0480	-0.2720	0.1340	0.0000
1271	0.0140	0.0460	-0.0210	-0.2690	0.1280	0.0000
1272	0.0310	0.0590	-0.0110	-0.2700	0.1290	0.0000
1273	0.0170	0.0470	0.0060	-0.2700	0.1280	0.0000
1274	0.0120	0.0490	0.0100	-0.2740	0.1270	0.0000
1275	0.0190	0.0490	0.0460	-0.2750	0.1300	0.0000
1276	0.0170	0.0350	-0.0360	-0.2710	0.1270	0.0000
1277	0.0130	0.0600	0.0230	-0.2730	0.1260	0.0000
1278	0.0350	0.0480	0.0200	-0.2710	0.1250	0.0000
1279	0.0240	0.0440	-0.0370	-0.2720	0.1220	0.0000
1280	0.0250	0.0610	-0.0230	-0.2680	0.1180	0.0000
1281	0.0430	0.0370	0.0040	-0.2630	0.1180	0.0000
1282	0.0500	0.0560	0.0520	-0.2640	0.1260	0.0000
1283	-0.0070	0.0430	-0.0450	-0.2660	0.1230	0.0000
1284	0.0160	0.0650	-0.0510	-0.2670	0.1270	0.0000
1285	0.0370	0.0640	0.0330	-0.2720	0.1230	0.0000
1286	0.0020	0.0400	-0.0010	-0.2730	0.1220	0.0000
1287	0.0520	0.0490	0.0350	-0.2730	0.1240	0.0000
1288	0.0170	0.0640	-0.0600	-0.2730	0.1220	0.0000
1289	0.0170	0.0640	-0.0600	-0.2730	0.1220	0.0000
1290	0.0390	0.0200	0.0320	-0.2720	0.1220	0.0000
1291	0.0170	0.0700	0.0200	-0.2700	0.1220	0.0000
1292	0.0150	0.0500	-0.0430	-0.2660	0.1240	0.0000
1293	0.0010	0.0320	-0.0330	-0.2640	0.1220	0.0000
1294	-0.0080	0.0330	-0.0220	-0.2590	0.1220	0.0000
1295	0.0240	0.0570	-0.0070	-0.2610	0.1220	0.0000
1296	0.0410	0.1950	-0.0420	-0.2550	0.1310	0.0000
1297	0.0220	0.0370	-0.0370	-0.2510	0.1320	0.0000
1298	0.0340	0.0520	0.0380	-0.2470	0.1290	0.0000
1299	0.0120	0.0450	-0.0140	-0.2480	0.1310	0.0000
1300	0.0150	0.0380	-0.0770	-0.2480	0.1300	0.0000
1301	-0.0060	0.0390	-0.0030	-0.2500	0.1300	0.0000
1302	0.0340	0.0410	-0.0390	-0.2430	0.1300	0.0000
1303	0.0030	0.0430	0.0420	-0.2440	0.1260	0.0000
1304	0.0150	0.0490	0.0280	-0.2390	0.1310	0.0000
1305	0.0360	0.1960	0.0290	-0.2380	0.1320	0.0000
1306	0.0290	0.0300	-0.0420	-0.2800	0.1320	0.0000
1307	0.0310	0.0250	-0.0120	-0.2370	0.1310	0.0000
1308	0.0010	0.0460	0.0240	0.0000	0.1310	0.0000
1309	0.0070	0.0310	-0.0510	-0.2400	0.1180	0.0000
1310	-0.0020	0.0340	-0.0190	0.2400	0.1180	0.0000
1311	0.0090	0.0370	-0.0220	-0.2340	0.0740	0.0000
1312	0.0000	0.0540	0.0332	-0.2340	0.0740	0.0000
1313	0.0220	0.0520	0.0130	-0.2200	0.0760	0.0000
1314	0.0400	0.1830	-0.0150	-0.2400	0.0780	0.0000
1315	0.0040	0.0450	-0.0060	-0.2240	0.0810	0.0000
1316	0.0110	0.0530	0.0060	-0.2260	0.0860	0.0000
1317	-0.0060	0.0240	-0.0220	-0.2260	0.0820	0.0000
1318	0.0330	0.0530	0.0180	-0.2280	0.0860	0.0000
1319	-0.0040	0.0470	-0.0110	-0.2240	0.0830	0.0000
1320	0.0220	0.0360	0.0000	-0.2210	0.0840	0.0000
1321	0.0350	0.0540	-0.0090	-0.2200	0.0860	0.0000
1322	-0.0180	0.0250	-0.0400	-0.2200	0.0780	0.0000
1323	-0.0060	0.0310	-0.0290	-0.2150	0.0780	0.0000
1324	0.0110	0.0390	0.0190	-0.2120	0.0760	0.0000
1325	0.0150	0.0440	-0.0140	-0.2110	0.0770	0.0000
1326	0.0190	0.0570	-0.0180	-0.2080	0.0740	0.0000
1327	-0.0030	0.0420	0.0090	-0.2010	0.0690	0.0000
1328	0.0290	0.0200	0.0100	-0.1960	0.0710	0.0000
1329	-0.0110	0.0260	0.0300	-0.1970	0.0670	0.0000
1330	-0.1010	0.0370	-0.0200	-0.2000	0.0670	0.0000
1331	0.0160	0.0310	-0.0140	-0.1950	0.0670	0.0000
1332	0.0010	0.0190	-0.0160	-0.1970	0.0700	0.0000
1333	0.0160	0.0360	-0.0190	-0.2070	0.0710	0.0000
1334	-0.0040	0.0560	-0.0280	-0.2060	0.0710	0.0000
1335	0.0160	0.0340	-0.0020	-0.2030	0.0690	0.0000
1336	0.0390	0.0370	0.0670	-0.2020	0.0640	0.0000
1337	0.0360	0.0430	0.0240	-0.2030	0.0640	0.0000
1338	0.0160	0.0530	0.0150	-0.2020	0.0610	0.0000
1339	-0.0050	0.0490	-0.0480	-0.2010	0.0550	0.0000
1340	-0.0110	0.0340	-0.0580	-0.1980	0.0580	0.0000
1341	0.0000	0.0220	0.0160	-0.1940	0.0590	0.0000
1342	-0.0070	0.0520	-0.0150	-0.1930	0.0590	0.0000
1343	0.0070	0.0410	0.0060	-0.1940	0.0630	0.0000
1344	0.0240	0.0370	0.0120	-0.1950	0.0620	0.0000
1345	0.0390	0.0380	-0.0110	-0.1980	0.0630	0.0000
1346	-0.0050	0.0100	-0.0100	-0.1990	0.0630	0.0000
1347	-0.0210	0.0610	0.0220	-0.1980	0.0610	0.0000
1348	0.0370	0.0480	0.0190	-0.1950	0.0640	0.0000
1349	0.0370	0.0480	0.0190	-0.1950	0.0640	0.0000
1350	0.0250	0.0210	-0.0440	-0.1910	0.0660	0.0000
1351	0.0060	0.0250	-0.0040	-0.1940	0.0670	0.0000
1352	-0.0100	0.0190	-0.0450	-0.1990	0.0710	0.0000
1353	0.0410	0.0300	0.0060	-0.2030	0.0700	0.0000
1354	0.0050	0.0240	-0.0080	-0.2000	0.0690	0.0000
1355	-0.0260	0.0320	-0.0790	-0.2000	0.0670	0.0000
1356	0.0180	0.0240	-0.0400	-0.2010	0.0650	0.0000
1357	0.0250	0.0370	-0.0120	-0.2020	0.0650	0.0000
1358	-0.0120	0.0410	-0.0160	-0.1990	0.0660	0.0000
1359	0.0100	0.0350	0.0520	-0.2070	0.0700	0.0000
1360	0.0570	0.0540	-0.0470	-0.2080	0.0660	0.0000
1361	0.0220	0.0400	0.0030	-0.2120	0.0640	0.0000
1362	0.0170	0.0440	0.0250	-0.2150	0.0660	0.0000
1363	0.0480	0.0270	-0.0600	-0.2200	0.0680	0.0000
1364	0.0030	0.0260	-0.0610	-0.2250	0.0680	0.0000
1365	0.0480	0.0370	0.0200	-0.2260	0.0670	0.0000
1366	0.1310	0.0320	0.0060	-0.2330	0.0740	0.0000
1367	0.0340	0.0250	-0.0150	-0.2380	0.0670	0.0000
1368	0.0160	0.0440	-0.0600	-0.2370	0.0650	0.0000
1369	0.0420	0.0390	0.0500	-0.2380	0.0630	0.0000
1370	0.0230	0.0540	-0.0140	-0.2330	0.0610	0.0000
1371	0.0010	0.0370	-0.0590	-0.2380	0.0650	0.0000
1372	-0.0020	0.0320	-0.0180	-0.2390	0.0500	0.0000
1373	0.0410	0.0530	0.0150	-0.2380	0.0710	0.0000
1374	0.0160	0.0450	-0.0020	-0.2370	71.0000	0.0000
1375	-0.0400	0.0230	-0.0130	-0.2360	0.0690	0.0000
1376	0.0130	0.1780	-0.0210	-0.2406	0.0690	0.0000
1377	0.0040	0.0530	0.0020	-0.2380	0.0693	0.0000
1378	0.0400	0.0200	-0.0200	-0.2800	0.0693	0.0000
1379	-0.0060	0.0410	0.0150	-0.2320	0.0710	0.0000
1380	0.0090	0.0550	-0.0390	-0.2320	0.0710	0.0000
1381	0.0020	0.0380	-0.0460	-0.2350	0.0750	0.0000
1382	0.0440	0.0560	0.0260	0.0000	0.0750	0.0000
1383	0.0020	0.0430	0.0030	-0.2290	0.0680	0.0000
1384	-0.0060	0.0360	0.0020	0.0690	-0.7930	0.0000
1385	0.0180	0.1990	0.0042	-0.2320	0.0760	0.0000
1386	-0.0270	0.0520	0.0180	-0.3500	0.0760	0.0000
1387	0.0060	0.0250	-0.0180	-0.3500	0.0760	0.0000
1388	-0.0010	0.0420	0.0070	-0.2300	0.0760	0.0000
1389	0.0220	0.0200	0.0070	-0.2300	0.0760	0.0000
1390	0.0150	0.0580	0.0430	-0.2360	0.0740	0.0000
1391	0.0250	0.0340	0.0430	-0.2360	0.0740	0.0000
1392	0.0020	0.0290	-0.3800	-0.2340	0.0730	0.0000
1393	0.0190	0.0290	-0.3800	-0.2340	0.0730	0.0000
1394	0.0440	0.0350	0.0000	-0.2290	0.0760	0.0000
1395	-0.0420	35.0000	0.0000	-0.2290	0.0760	0.0000
1396	0.0030	0.0530	-0.0370	-0.2200	0.0820	0.0000
1397	0.0030	0.0530	-0.0370	-0.2200	0.0820	0.0000
1398	0.0260	0.0350	-0.0010	-0.2080	0.0780	0.0000
1399	0.0260	0.0350	-0.0010	-0.2080	0.0780	0.0000
1400	-0.1200	0.0320	0.0010	-0.2060	0.0750	0.0000
1401	-0.0320	0.0190	0.0120	-0.2040	0.0730	0.0000
1402	-0.0320	0.0190	0.0120	-0.2040	0.0730	0.0000
1403	-0.0020	0.0420	-0.2010	0.0700	-0.3700	0.0000
1404	-0.0020	0.0050	-0.0030	-0.2020	0.0650	0.0000
1405	0.0010	0.0320	-0.0430	-0.1980	0.0660	0.0000
1406	0.0260	0.0400	0.0340	-0.1980	0.0650	0.0000
1407	0.0090	0.0470	0.0010	-0.2010	0.0630	0.0000
1408	0.0300	0.0240	-0.0360	-0.2020	0.0630	0.0000
1409	0.0210	0.0410	0.0460	-0.2020	0.0630	0.0000
1410	-0.0010	0.0470	-0.0390	-0.2010	0.0660	0.0000
1411	0.0040	0.0150	-0.0340	-0.1990	0.0670	0.0000
1412	0.0490	0.0450	0.0180	-0.1990	0.0690	0.0000
1413	-0.0370	0.0390	0.0010	-0.2040	0.0620	0.0000
1414	0.0220	0.0490	0.0050	-0.2070	0.0630	0.0000
1415	-0.0040	0.0420	-0.0270	-0.2090	0.0660	0.0000
1416	-0.0200	0.0270	-0.0210	-0.1670	0.0650	0.0000
1417	0.0140	0.0380	0.4900	-0.1710	0.0650	0.0000
1418	0.0160	0.0190	0.0190	-0.1700	0.0610	0.0000
1419	0.0140	0.0310	-0.0310	0.0650	0.0400	0.0000
1420	-0.0260	0.0300	0.0010	-0.1650	0.0700	0.0000
1421	-0.0110	0.1600	-0.0320	-0.6200	0.0680	0.0000
1422	0.0220	0.0270	0.0000	-0.6200	0.0680	0.0000
1423	-0.0340	0.0260	-0.0160	-0.1620	0.0690	0.0000
1424	-0.0170	0.0270	-0.0160	-0.1620	0.0690	0.0000
1425	0.0150	0.0560	-0.0140	-0.1590	0.0680	0.0000
1426	0.0290	0.0260	-0.0140	-0.1590	0.0680	0.0000
1427	0.0120	0.0050	0.0138	-0.1570	0.0720	0.0000
1428	-0.0150	0.0200	0.0138	-0.1570	0.0720	0.0000
1429	0.0120	0.0360	0.0030	-0.1570	0.0730	0.0000
1430	0.0370	0.0360	0.0030	-0.1570	0.0730	0.0000
1431	0.0190	0.1620	0.0140	-0.1530	0.0780	0.0000
1432	-0.0110	0.0380	0.0070	-0.1540	0.0780	0.0000
1433	0.0061	0.0380	0.0070	-0.1540	0.0780	0.0000
1434	-0.0200	0.0280	0.0070	-0.1580	0.0810	0.0000
1435	0.0026	0.0430	-0.0270	-0.1560	0.0800	0.0000
1436	0.0180	0.0250	-0.0350	-0.1560	0.1280	0.0000
1437	0.0130	0.0280	0.0210	-0.1610	0.1270	0.0000
1438	-0.0020	0.0260	0.0180	-0.1600	0.1310	0.0000
1439	0.0442	0.0260	0.0180	-0.1600	0.1310	0.0000
1440	0.0210	0.0050	0.0090	-0.1590	0.1330	0.0000
1441	0.0210	0.0050	0.0090	-0.1590	0.1330	0.0000
1442	0.0000	0.0400	0.0190	-0.1660	0.1330	0.0000
1443	0.0000	0.0400	0.0190	-0.1660	0.1330	0.0000
1444	0.0120	0.0340	-0.0580	-0.1730	0.1310	0.0000
1445	0.0120	0.0340	-0.0580	-0.1730	0.1310	0.0000
1446	0.0490	0.0330	0.0040	-0.1780	0.1390	0.0000
1447	0.1390	0.0160	-0.0160	-0.1820	0.1400	0.0000
1448	-0.1430	0.0720	-0.0280	-0.1760	0.1360	0.0000
1449	0.0390	-0.0920	-0.0270	-0.1750	0.1390	0.0000
1450	0.0020	0.0510	-0.0020	-0.1820	0.1400	0.0000
1451	0.0700	0.0320	0.0340	-0.1800	0.1370	0.0000
1452	0.0050	0.0430	0.0210	-0.1810	0.1360	0.0000
1453	0.0170	0.0370	-0.0370	-0.1830	0.1360	0.0000
1454	0.0100	0.0190	0.0190	-0.1850	0.1340	0.0000
1455	0.0340	0.0400	0.0300	-0.1840	0.1320	0.0000
1456	0.0320	0.0350	-0.0140	-0.1790	0.1310	0.0000
1457	-0.1170	0.0390	0.0350	-0.1750	0.1300	0.0000
1458	0.0690	0.0220	-0.0090	-0.1810	0.1340	0.0000
1459	-0.0310	0.0320	-0.0160	-0.1820	0.1300	0.0000
1460	0.0740	0.0120	0.0090	-0.1820	0.1280	0.0000
1461	0.0300	0.0240	-0.0150	-0.1880	0.1260	0.0000
1462	0.0170	0.0320	0.0180	-0.1880	0.1180	0.0000
1463	0.0400	0.0120	0.0330	-0.1850	0.1190	0.0000
1464	-0.0170	0.0450	23.0000	-0.1800	0.1130	0.0000
1465	0.0240	0.0290	-0.0140	-0.1760	0.1120	0.0000
1466	0.0450	0.0390	0.0250	-0.1800	0.1110	0.0000
1467	-0.0160	0.0430	-0.0540	-0.1810	0.1130	0.0000
1468	0.0110	0.0340	-0.0170	-0.1850	0.1150	0.0000
1469	0.0410	0.0290	-0.0120	-0.1880	0.1120	0.0000
1470	0.0390	0.0390	-0.0070	-0.1860	0.1130	0.0000
1471	0.0290	0.0330	-0.0120	-0.1900	0.1180	0.0000
1472	0.0090	0.0410	-0.0020	-0.1930	0.0770	0.0000
1473	0.0040	0.0340	-0.0110	-0.1880	0.0830	0.0000
1474	0.0340	0.0400	0.0020	-0.1880	0.0880	0.0000
1475	0.0180	0.0360	-0.0480	-0.1900	0.0900	0.0000
1476	0.0330	0.1800	-0.0100	-0.1930	0.0870	0.0000
1477	0.0090	0.0360	0.0150	-0.1890	0.0880	0.0000
1478	0.0120	0.0410	-0.0540	-0.1880	0.0900	0.0000
1479	0.0020	0.0510	-0.0330	-0.2350	0.0900	0.0000
1480	0.0210	0.0390	0.0280	-0.2340	0.0860	0.0000
1481	0.0260	0.0370	0.0150	-0.2370	0.0460	0.0000
1482	-0.0470	0.0270	-0.0330	-0.2350	0.0530	0.0000
1483	0.0310	0.0360	-0.0010	-0.2370	0.0570	0.0000
1484	0.0170	0.0300	-0.0420	-0.2370	0.0600	0.0000
1485	-0.0040	0.0210	-0.0150	-0.2400	0.0660	0.0000
1486	0.0470	0.0670	-0.0270	-0.2380	0.0700	0.0000
1487	0.0060	0.0460	0.0180	-0.2350	0.0670	0.0000
1488	0.0040	0.0280	-0.0220	-0.2330	0.0730	0.0000
1489	0.0230	0.0550	0.0210	-0.2310	0.0720	0.0000
1490	-0.0010	0.0340	-0.0430	-0.2350	0.0720	0.0000
1491	-0.0160	0.0520	-0.0170	-0.2360	0.0730	0.0000
1492	0.0020	0.0390	0.0180	-0.2350	0.0780	0.0000
1493	0.0320	0.0520	-0.0130	-0.2340	0.0830	0.0000
1494	-0.0150	0.0470	-0.0130	-0.2360	0.0850	0.0000
1495	0.0390	0.0220	-0.0300	-0.2350	0.0900	0.0000
1496	0.0250	0.0380	0.0210	-0.2350	0.0900	0.0000
1497	0.0360	0.0330	0.0220	-0.1940	0.0920	0.0000
1498	0.0130	0.0100	-0.0490	-0.1950	0.0890	0.0000
1499	0.0330	0.0260	0.0160	-0.2010	0.0890	0.0000
1500	0.0360	0.0320	0.0430	-0.2010	0.0910	0.0000
1501	0.0400	0.0110	-0.0140	-0.1990	0.0940	0.0000
1502	0.0150	0.0460	0.0390	-0.1970	0.0900	0.0000
1503	0.0070	0.0360	0.0000	-0.1990	0.0940	0.0000
1504	0.0140	0.0460	-0.0120	-0.2020	0.0880	0.0000
1505	0.0350	0.0420	-0.0280	-0.1990	0.0890	0.0000
1506	0.0400	0.0680	-0.0190	-0.2020	0.0850	0.0000
1507	0.0080	0.0390	-0.0110	-0.2020	0.0820	0.0000
1508	-0.0150	0.0260	0.0040	-0.2010	0.0810	0.0000
1509	0.0210	0.0420	-0.0210	-0.1980	0.0770	0.0000
1510	-0.0040	0.0290	-0.0110	-0.2030	0.0780	0.0000
1511	-0.0020	0.0500	-0.0180	-0.2030	0.0820	0.0000
1512	0.0350	0.1960	-0.0030	-0.2010	0.0850	0.0000
1513	0.0350	0.0280	0.0090	-0.2030	0.0850	0.0000
1514	0.0000	0.0310	-16.0000	-0.2050	0.0820	0.0000
1515	-0.0310	0.0590	-0.0580	-0.2070	0.0780	0.0000
1516	0.0330	0.0470	-0.0580	-0.2070	0.0780	0.0000
1517	0.0700	0.0410	-0.0580	-0.2070	0.0780	0.0000
1518	0.0700	0.0410	-0.0580	-0.2070	0.0780	0.0000
1519	0.0040	0.0260	-0.0370	-0.2060	0.0760	0.0000
1520	0.0380	0.0280	-0.0010	-0.2070	0.0790	0.0000
1521	0.0050	0.0350	0.0060	-0.2090	0.0770	0.0000
1522	-0.0020	0.0270	-0.0060	-0.2090	0.0770	0.0000
1523	-0.0060	0.0270	-0.0060	-0.2090	0.0770	0.0000
1524	0.0206	0.0350	-0.0020	-0.2090	0.0710	0.0000
1525	0.0240	0.0270	-0.0240	-0.2070	0.0730	0.0000
1526	0.0540	0.0500	0.0420	-0.2060	0.0710	0.0000
1527	-0.1530	36.0000	-0.0230	-0.2020	0.0680	0.0000
1528	0.0220	36.0000	-0.0230	-0.2020	0.0680	0.0000
1529	-0.0050	0.0200	-0.2090	0.0740	-1.4270	0.0000
1530	0.0395	0.0300	-0.0140	-0.2050	0.0740	0.0000
1531	0.0390	0.0110	0.0170	-0.2080	0.0780	0.0000
1532	-0.1800	0.0330	-0.0220	-0.2080	0.0750	0.0000
1533	-0.0050	0.0370	-0.0340	-0.2070	0.0700	0.0000
1534	0.0190	0.0310	-0.0010	-0.2060	0.0730	0.0000
1535	0.0400	0.0440	-0.0020	-0.2050	0.0710	0.0000
1536	0.0110	0.0330	-0.0310	-0.2060	0.0700	0.0000
1537	-0.1530	0.0280	-0.0020	-0.2060	0.0740	0.0000
1538	0.0450	0.0460	-0.0020	-0.2050	0.0760	0.0000
1539	-0.0040	0.0540	-0.0480	-0.2060	0.0820	0.0000
1540	0.0280	0.0490	-0.0020	-0.2060	0.0780	0.0000
1541	0.0260	0.0410	-0.0430	-0.2010	0.0730	0.0000
1542	0.0070	0.0380	0.0170	-0.1590	0.0740	0.0000
1543	0.0090	0.0180	0.0220	-0.1610	0.0750	0.0000
1544	0.0370	0.0320	-0.0190	-0.1690	0.0740	0.0000
1545	0.0360	0.0330	-0.0150	-0.1750	0.0740	0.0000
1546	-0.1330	0.0180	-0.0350	-0.1720	0.0770	0.0000
1547	0.0100	0.0330	0.0030	-0.1670	0.0780	0.0000
1548	0.0570	-0.1100	-0.0210	-0.1660	0.0760	0.0000
1549	0.0160	0.0280	-0.0170	-0.1690	0.0720	0.0000
1550	-0.0410	0.0160	0.0100	-0.1670	0.0740	0.0000
1551	0.0050	0.0330	-0.0100	-0.1620	0.0810	0.0000
1552	0.0240	0.0450	0.0160	-0.1610	0.0840	0.0000
1553	-0.0050	0.0370	-0.0080	-0.1600	0.0820	0.0000
1554	-0.0070	0.0110	0.0230	-0.1580	0.0800	0.0000
1555	-0.1240	0.0260	-0.0070	-0.1580	0.0820	0.0000
1556	0.0020	0.0240	0.0550	-0.1600	0.0860	0.0000
1557	0.0150	0.1780	0.0020	-0.1530	0.0850	0.0000
1558	0.0310	0.0340	0.0030	-0.1500	0.0820	0.0000
1559	-0.0170	0.0310	-0.0020	-0.1490	0.0810	0.0000
1560	0.0160	0.0080	-0.0030	-0.1380	0.0820	0.0000
1561	0.0630	0.0040	0.0000	-0.1380	0.0850	0.0000
1562	-0.0290	0.0170	13.0000	-0.1420	0.0850	0.0000
1563	-0.1140	0.0180	-0.0250	-0.1460	0.0870	0.0000
1564	0.0120	0.0380	0.0160	-0.1460	0.0890	0.0000
1565	0.0220	0.0200	-0.0370	-0.1450	0.0890	0.0000
1566	0.0270	0.0110	-0.0080	-0.1450	0.0880	0.0000
1567	-0.0050	0.0350	-0.0210	-0.1460	0.0900	0.0000
1568	0.0240	0.0230	-0.0300	-0.1420	0.0890	0.0000
1569	-0.0030	0.0010	-0.0100	-0.1480	0.0880	0.0000
1570	0.0250	0.0340	-0.0500	-0.1520	0.0860	0.0000
1571	-0.0050	0.0230	-0.0170	-0.1550	0.0880	0.0000
1572	0.0050	0.0320	0.0230	-0.1570	0.0920	0.0000
1573	0.1410	0.0460	0.0260	-0.1590	0.0920	0.0000
1574	0.0260	0.0180	-0.0330	-0.1510	0.0880	0.0000
1575	0.0070	0.0210	-0.0060	-0.1570	0.0900	0.0000
1576	0.0000	0.0210	-0.0090	-0.1580	0.0910	0.0000
1577	0.0220	0.0320	0.0110	-0.1680	0.0950	0.0000
1578	0.0220	0.0490	-0.0420	-0.1730	0.0950	0.0000
1579	0.0020	0.0330	0.0030	-0.1720	0.0990	0.0000
1580	0.0120	0.0420	-0.0100	-0.1710	0.0940	0.0000
1581	0.0470	0.0370	-0.0100	-0.1690	0.0910	0.0000
1582	0.0010	0.0280	0.0000	-0.1700	0.0880	0.0000
1583	0.0450	0.0380	-0.0220	-0.1670	0.0910	0.0000
1584	0.0190	0.0340	-0.0180	-0.1630	0.0910	0.0000
1585	-0.0160	0.0500	-0.0130	-0.1660	0.0920	0.0000
1586	0.0160	0.0360	0.0020	-0.1630	0.0920	0.0000
1587	0.0060	0.0200	-0.0110	-0.1620	0.0900	0.0000
1588	0.0000	0.0230	-0.0220	-0.1610	0.0910	0.0000
1589	-0.0040	0.0290	0.0050	-0.1620	0.0890	0.0000
1590	0.0250	0.0380	-0.0030	-0.1590	0.0900	0.0000
1591	0.0170	0.0210	-0.0370	-0.1620	0.0940	0.0000
1592	0.0240	0.0250	-0.0090	-0.1590	0.0930	0.0000
1593	-0.0090	0.0390	0.0270	-0.1570	0.0990	0.0000
1594	0.0160	0.0150	-0.0280	-0.1550	0.0980	0.0000
1595	0.0370	0.0030	-0.0020	-0.1600	0.1000	0.0000
1596	0.0040	0.0270	-0.0060	-0.1180	0.1030	0.0000
1597	0.0220	0.0280	0.0010	-0.1200	0.1100	0.0000
1598	0.0420	0.0220	0.0100	-0.1190	0.1050	0.0000
1599	-0.0120	0.0190	-0.0410	-0.1180	0.1040	0.0000
1600	0.0390	0.0030	-0.0050	-0.1190	0.1050	0.0000
1601	0.0050	0.0220	-0.0160	-0.1240	0.1040	0.0000
1602	0.0270	0.0150	0.0020	-0.1180	0.0990	0.0000
1603	0.0180	0.0080	-0.0100	-0.1210	0.0980	0.0000
1604	0.0240	0.0190	0.0440	-0.1190	0.1010	0.0000
1605	-0.0260	0.0280	-0.0030	-0.1180	0.1010	0.0000
1606	0.0170	0.0130	-0.0180	-0.1220	0.1040	0.0000
1607	0.0880	0.0410	0.0230	-0.1260	0.1070	0.0000
1608	0.0660	0.0370	-0.0090	-0.1290	0.1010	0.0000
1609	0.0030	0.0080	-0.0040	-0.1290	0.1020	0.0000
1610	0.0320	0.0020	-0.0040	-0.1270	0.1000	0.0000
1611	0.0320	0.0020	-0.0040	-0.1270	0.1000	0.0000
1612	0.0120	0.0350	-0.0180	-0.1300	0.1110	0.0000
1613	0.0120	0.0350	-0.0180	-0.1300	0.1110	0.0000
1614	0.0530	0.0170	-0.0080	-0.1260	0.1150	0.0000
1615	0.0530	0.0170	-0.0080	-0.1260	0.1150	0.0000
1616	0.0190	0.0090	-0.0520	-0.1250	0.1170	0.0000
1617	-0.1310	0.0350	-0.0060	-0.1290	0.1130	0.0000
1618	0.0450	0.0140	-0.0040	-0.1340	0.1210	0.0000
1619	0.0650	-0.1170	-0.0340	-0.1330	0.1210	0.0000
1620	0.0250	0.0120	-0.0130	-0.1400	0.1180	0.0000
1621	0.0200	0.0170	-0.0270	-0.1460	0.1220	0.0000
1622	-0.0230	0.0230	-0.0010	-0.1550	0.1230	0.0000
1623	0.0600	0.0240	-0.0060	-0.1540	0.1310	0.0000
1624	0.0280	0.0350	-0.0050	-0.1580	0.1300	0.0000
1625	0.0300	0.0170	-0.0280	-0.1620	0.1310	0.0000
1626	-0.1270	0.0340	-0.0340	-0.1610	0.1270	0.0000
1627	-0.0240	0.0170	0.0090	-0.1590	0.1220	0.0000
1628	0.0100	0.0150	0.0210	-0.1610	0.1200	0.0000
1629	0.0230	0.0320	0.0100	-0.1600	0.1190	0.0000
1630	0.0020	0.0340	0.0050	-0.1620	0.1160	0.0000
1631	-0.0010	0.0450	0.0010	-0.1640	0.1180	0.0000
1632	0.0620	0.0420	-0.0030	-0.1620	0.1180	0.0000
1633	0.0360	0.0190	0.0100	-0.1570	0.1180	0.0000
1634	-0.0060	0.0270	-0.0120	-0.1570	0.8000	0.0000
1635	0.0220	0.0220	0.0130	-0.1610	0.0000	0.0000
1636	0.0150	0.0440	-0.0340	-0.1640	0.1120	0.0000
1637	0.0110	0.1710	-0.0010	-0.1630	0.1120	0.0000
1638	0.0420	0.0290	0.0080	-0.1580	0.1102	0.0000
1639	0.0140	0.0370	0.0160	-0.1580	0.1102	0.0000
1640	0.0100	0.0230	-0.0450	-0.1520	0.1300	0.0000
1641	0.0610	0.0210	-0.0090	-0.1520	0.1300	0.0000
1642	-0.0110	0.0060	-0.0160	-0.1540	0.1140	0.0000
1643	-0.0110	0.0270	-0.0250	-0.1540	0.1140	0.0000
1644	0.0380	0.0330	-0.0220	-0.1656	0.1140	0.0000
1645	0.0110	0.0370	0.0052	-0.1656	0.1140	0.0000
1646	0.0040	0.0340	-0.0660	-0.6600	0.1120	0.0000
1647	-0.0130	0.0370	-0.6600	-0.6600	0.1120	0.0000
1648	0.0350	0.0430	0.0040	0.0000	0.1100	0.0000
1649	0.0180	0.0290	-0.0040	0.0000	0.1100	0.0000
1650	0.0310	0.0210	0.0020	-0.1680	0.1120	0.0000
1651	0.0310	0.0210	0.0020	-0.1680	0.1120	0.0000
1652	-0.0290	0.0010	-0.0010	-0.1260	113.0000	0.0000
1653	0.0350	0.0580	0.0040	-0.1260	0.1200	0.0000
1654	0.0330	0.0300	0.0280	-0.1230	0.1200	0.0000
1655	0.0110	-0.1120	-0.0070	-0.1260	0.1160	0.0000
1656	0.0200	0.0250	-0.0140	-0.1290	0.1150	0.0000
1657	0.0330	0.0320	-0.0340	-0.1290	0.1160	0.0000
1658	0.0400	0.0530	-0.0110	-0.1300	0.1160	0.0000
1659	-0.0110	0.0060	-0.0020	-0.1310	0.1180	0.0000
1660	0.0190	0.0220	-0.0320	-0.1260	0.1220	0.0000
1661	0.0350	0.0270	0.0010	-0.1250	0.1190	0.0000
1662	0.0000	0.0160	0.0090	-0.1220	0.1210	0.0000
1663	0.0270	0.0080	0.0020	-0.1190	0.1180	0.0000
1664	0.0370	-0.1200	-0.0370	-0.1160	0.1120	0.0000
1665	0.0270	0.0070	-0.0370	-0.1190	0.1160	0.0000
1666	0.0060	0.0330	-0.0050	-0.1180	0.1120	0.0000
1667	0.0020	0.0220	-0.0040	-0.1150	0.1120	0.0000
1668	0.0030	0.0250	0.0280	-0.1130	0.1120	0.0000
1669	0.0330	0.0300	-0.0080	-0.1130	0.1120	0.0000
1670	0.0520	0.0430	0.0000	-0.1110	0.1150	0.0000
1671	0.1310	0.0100	0.0260	-0.1080	0.1160	0.0000
1672	0.0350	-0.0010	0.0300	-0.1050	0.1130	0.0000
1673	0.0150	0.0320	0.0510	-0.1080	0.1090	0.0000
1674	-0.0020	0.0260	-0.0320	-0.1100	0.1100	0.0000
1675	0.0250	0.0280	-0.0590	-0.1060	0.1100	0.0000
1676	-0.0100	0.0240	-0.0150	-0.1020	0.1040	0.0000
1677	-0.0230	0.0390	-0.0060	-0.0990	0.1020	0.0000
1678	0.0520	0.0070	-0.0050	-0.0970	0.1000	0.0000
1679	0.0220	0.0160	-0.0310	-0.0960	0.1020	0.0000
1680	0.0460	0.0130	-0.0220	-0.0950	0.1100	0.0000
1681	0.0290	0.0250	-0.0400	-0.0940	0.1080	0.0000
1682	0.0230	-0.1220	-0.0280	-0.0930	0.1050	0.0000
1683	0.0620	0.0170	0.0100	-0.0940	0.1070	0.0000
1684	0.0300	0.0290	0.0300	-0.0970	0.1050	0.0000
1685	0.0370	0.0130	-0.0280	-0.0970	0.1050	0.0000
1686	0.0330	0.0400	0.0000	-0.1010	0.1050	0.0000
1687	0.0720	0.0320	0.0330	-0.1010	0.1030	0.0000
1688	0.0240	0.0290	-0.0060	-0.0990	0.0960	0.0000
1689	0.0210	0.0150	0.0110	-0.0970	0.0910	0.0000
1690	0.0690	0.0290	-0.0220	-0.0980	0.0930	0.0000
1691	-0.0010	0.0290	-0.0340	-0.0980	0.0940	0.0000
1692	0.0170	0.0270	0.0240	-0.0940	0.0950	0.0000
1693	0.0010	0.0380	-0.0060	-0.0920	0.0930	0.0000
1694	0.0180	0.0090	0.0000	-0.0940	0.0950	0.0000
1695	0.0190	0.0310	-0.0100	-0.1000	0.0970	0.0000
1696	0.0270	0.0190	0.0070	-0.1060	0.0970	0.0000
1697	-0.0150	-0.0030	0.0120	-0.1040	0.0980	0.0000
1698	-0.1200	0.0060	-0.0260	-0.1050	0.0970	0.0000
1699	0.0410	0.0320	-0.0190	-0.1060	0.0950	0.0000
1700	0.0380	-0.1200	-0.0590	-0.1020	0.0950	0.0000
1701	0.0070	0.0060	0.0280	-0.1020	0.0930	0.0000
1702	0.0250	0.0140	0.0090	-0.0990	0.0930	0.0000
1703	0.0020	0.0260	0.0190	-0.1000	0.0890	0.0000
1704	0.0200	0.0300	0.0120	-0.1000	0.0900	0.0000
1705	0.0300	0.0470	0.0150	-0.0960	0.0870	0.0000
1706	-0.0150	0.0120	0.0020	-0.0980	0.0890	0.0000
1707	0.0150	0.0160	0.0460	-0.0950	0.0870	0.0000
1708	0.1410	0.0120	0.0050	-0.0930	0.0850	0.0000
1709	0.1410	0.0120	0.0050	-0.0930	0.0850	0.0000
1710	0.0080	0.0210	-0.0310	-0.0950	0.0820	0.0000
1711	0.0020	0.0130	-0.0240	-0.0930	0.0830	0.0000
1712	0.0030	0.0250	-0.0190	-0.0930	0.0760	0.0000
1713	-0.0080	0.0190	-0.0240	-0.1000	0.0720	0.0000
1714	-0.0390	0.0180	0.0120	-0.1010	0.0700	0.0000
1715	0.0330	0.0330	0.0300	-0.1060	0.0680	0.0000
1716	0.1340	0.0280	-0.0330	-0.1060	0.0700	0.0000
1717	0.0050	0.0120	-0.0220	-0.1050	0.0720	0.0000
1718	0.0200	0.0210	0.1280	-0.1080	0.0700	0.0000
1719	-0.0100	0.0290	0.0130	-0.1080	0.0750	0.0000
1720	0.0210	0.0230	0.0210	-0.1030	0.0750	0.0000
1721	0.0270	0.0300	0.0040	-0.1490	0.0760	0.0000
1722	-0.0140	0.0280	-0.0240	-0.1460	0.0700	0.0000
1723	-0.0120	0.0400	-0.0240	-0.1510	0.0730	0.0000
1724	-0.0320	0.0490	-0.0340	-0.1550	0.0710	0.0000
1725	0.0100	0.0320	-0.0710	-0.1530	0.0770	0.0000
1726	0.0070	0.0320	0.0150	-0.1560	0.0820	0.0000
1727	0.0410	0.0060	0.0080	-0.1560	0.0880	0.0000
1728	0.0060	0.0420	0.1330	-0.1620	0.0840	0.0000
1729	0.0680	0.0490	0.0040	-0.1650	0.0870	0.0000
1730	0.0500	0.0230	-0.0370	-0.1630	0.0700	0.0000
1731	0.0150	-0.0030	-0.0230	-0.1620	84.0000	0.0000
1732	-0.0020	0.0210	0.0220	-0.1590	0.0000	0.0000
1733	0.0170	0.0350	0.0250	-0.1570	0.0780	0.0000
1734	0.1330	0.0270	-0.0610	-0.1510	-1.8180	0.0000
1735	0.0340	0.0250	-0.0190	-0.1510	0.0760	0.0000
1736	0.0420	0.0230	0.0010	-0.1551	0.0720	0.0000
1737	-0.0120	0.0570	-0.0240	-0.3000	0.0730	0.0000
1738	0.0190	0.0040	0.0310	0.0000	0.0720	0.0000
1739	0.0540	0.0180	-0.0030	-0.1580	0.0750	0.0000
1740	0.0070	0.0000	0.0250	0.0000	0.0760	0.0000
1741	0.0510	0.0350	0.0110	-0.1180	0.0720	0.0000
1742	0.0040	0.0230	0.0000	-0.1180	0.0720	0.0000
1743	0.1210	0.0160	0.0104	-0.1160	0.0720	0.0000
1744	0.0180	0.0280	0.0040	-0.1200	0.0690	0.0000
1745	0.0510	0.0230	0.0040	-0.1200	0.0690	0.0000
1746	-0.0060	0.0500	-19.0000	-0.1290	0.0660	0.0000
1747	0.0110	0.0380	-19.0000	-0.1290	0.0660	0.0000
1748	0.0070	0.0220	-19.0000	-0.1290	0.0660	0.0000
1749	0.0140	0.0420	-0.0410	-0.1220	0.0620	0.0000
1750	0.0580	0.0470	0.0010	-0.1220	0.0620	0.0000
1751	0.0580	0.0310	-0.0180	-0.1250	0.0610	0.0000
1752	-0.1310	2.0000	0.0660	-0.1250	0.0650	0.0000
1753	-0.0010	0.0340	0.0200	-0.1220	0.0670	0.0000
1754	-0.0020	0.0340	0.0200	-0.1220	0.0670	0.0000
1755	-0.0020	0.0300	0.0070	-0.1240	0.0770	0.0000
1756	0.0490	0.0080	-0.0010	-0.1200	0.0780	0.0000
1757	-0.0260	0.0440	0.0140	-0.1240	0.0710	0.0000
1758	0.0280	0.0270	0.0110	-0.1260	0.0681	0.0000
1759	-0.0090	0.0230	-0.0290	-0.1260	0.0000	0.0000
1760	0.1230	0.0000	0.0120	0.0000	0.0000	0.0000
1761	0.0370	0.0140	0.0430	-0.1270	0.0075	0.0000
1762	0.0290	0.0300	-0.0100	-0.1240	0.0690	0.0000
1763	0.0290	0.0340	-0.0080	-0.1240	0.0680	0.0000
1764	0.0410	0.0240	-0.0520	-0.1230	0.0700	0.0000
1765	0.0260	0.0170	-0.0420	-0.1220	0.0700	0.0000
1766	-0.0220	0.0220	-0.0150	-0.1230	0.6700	0.0000
1767	-0.0200	0.0070	-0.0310	-0.1230	0.0690	0.0000
1768	0.0270	0.0300	0.0120	-0.1210	0.0000	0.0000
1769	0.0040	0.0350	-0.0320	-0.1220	0.0730	0.0000
1770	0.0490	0.0120	-0.0430	-0.1220	0.0730	0.0000
1771	-0.0110	-0.1080	-0.0200	-0.1000	0.0720	0.0000
1772	0.0160	0.0420	0.0010	-0.1200	0.0730	0.0000
1773	0.0390	0.0300	0.0060	-0.1240	0.0740	0.0000
1774	-0.0040	0.0240	0.0070	-0.2500	0.0780	0.0000
1775	0.0340	0.0240	0.0100	-0.1200	0.0750	0.0000
1776	0.0520	0.0360	0.0400	-0.1200	0.0760	0.0000
1777	-0.0370	0.0020	0.0400	-0.1200	0.0760	0.0000
1778	-0.0280	0.0110	-0.0410	-0.1270	0.0710	0.0000
1779	0.0040	0.0290	-0.0042	-0.1310	0.0690	0.0000
1780	-0.0200	-0.1010	-0.0330	-138.0000	0.0680	0.0000
1781	0.0440	0.0280	-0.0180	0.0000	0.0680	0.0000
1782	0.0000	0.0380	-0.0090	-0.1350	0.0650	0.0000
1783	0.0170	0.0170	0.0170	-0.1350	0.0650	0.0000
1784	-0.0110	0.0150	-0.0100	0.0620	-1.7210	0.0000
1785	0.0220	0.0190	0.0001	-0.0910	0.0630	0.0000
1786	0.0040	0.0120	-0.0600	-0.0930	0.0650	0.0000
1787	0.0280	0.0100	0.0000	-0.0950	0.1110	0.0000
1788	0.0120	0.0210	0.0180	-0.0970	0.1080	0.0000
1789	-0.0180	0.0130	0.0750	-0.0960	0.1040	0.0000
1790	0.0260	0.0103	0.0750	-0.0960	0.1040	0.0000
1791	0.0080	0.0200	-0.0490	-0.0980	0.1070	0.0000
1792	-0.0800	0.0200	-0.0490	-0.0980	0.1070	0.0000
1793	0.0090	0.0000	0.0340	-0.0960	0.1080	0.0000
1794	0.0090	0.0000	0.0340	-0.0960	0.1080	0.0000
1795	0.0180	0.0140	-0.0090	-0.0930	0.1080	0.0000
1796	0.0330	0.0190	0.0130	-0.0930	0.1090	0.0000
1797	-0.0020	0.0000	-0.0160	-0.0930	0.1070	0.0000
1798	-0.0010	0.0000	-0.0350	-0.0970	0.1020	0.0000
1799	0.0560	0.0000	-0.0250	-0.1030	0.1010	0.0000
1800	0.0380	0.0210	0.0760	-0.1050	0.1000	0.0000
1801	-0.0060	0.0150	-0.0330	-0.1030	0.1000	0.0000
1802	0.0050	0.0150	-0.0330	-0.1030	0.1000	0.0000
1803	0.0310	0.0150	-0.0330	-0.1030	0.1000	0.0000
1804	0.0060	0.0170	-0.0270	-0.1110	0.0970	0.0000
1805	0.0190	0.0240	-0.0630	-0.1070	642.0000	0.0000
1806	-0.0010	0.0200	-0.0280	-0.1000	642.0000	0.0000
1807	0.0160	0.0260	0.0290	-0.1050	0.0930	0.0000
1808	0.0260	0.0050	-0.0400	-0.1050	0.0930	0.0000
1809	0.0120	0.0170	0.0010	-0.1109	0.0940	0.0000
1810	0.0130	0.0100	-0.0100	-0.1109	0.0940	0.0000
1811	0.0370	0.0260	-0.0370	-0.1130	0.0930	0.0000
1812	0.0010	0.0240	0.0370	-0.1130	0.0930	0.0000
1813	0.0270	0.0180	0.0220	-0.1110	0.0930	0.0000
1814	0.0160	0.0390	0.0220	-0.1110	0.0930	0.0000
1815	0.0160	0.0390	0.0220	-0.1110	0.0930	0.0000
1816	0.0480	0.0160	0.0030	-0.1110	0.6000	0.0000
1817	0.0130	0.0390	0.0210	-0.1110	0.0880	0.0000
1818	0.0180	0.0200	-0.0230	-0.1040	0.0860	0.0000
1819	0.0190	0.0090	-0.0440	-0.1040	0.0860	0.0000
1820	-0.0150	0.0180	-0.0360	-0.1080	0.0300	0.0000
1821	0.0020	0.0150	0.0380	-0.1120	0.0000	0.0000
1822	0.0480	0.0150	0.0690	-0.1120	0.0790	0.0000
1823	0.1210	0.0420	0.0080	-0.1120	0.0790	0.0000
1824	-0.0040	0.0140	0.0350	-0.1140	0.0850	0.0000
1825	0.0030	0.0510	-0.0130	-0.1140	0.0850	0.0000
1826	0.0030	0.0440	-0.0540	-0.1110	0.0850	0.0000
1827	0.0050	0.0210	0.0054	-0.1110	0.0850	0.0000
1828	-0.0030	0.0020	-0.0190	-11.0000	0.0870	0.0000
1829	0.0050	0.0210	0.0000	-11.0000	0.0870	0.0000
1830	-0.0050	0.0300	0.0240	-0.1120	0.0840	0.0000
1831	0.0730	0.0230	0.0240	-0.1120	0.0840	0.0000
1832	-0.0070	0.0150	-0.0500	0.0870	-0.8570	0.0000
1833	0.0370	0.0340	-0.0052	-0.1220	0.0840	0.0000
1834	0.0620	0.1800	0.0300	0.0000	0.0870	0.0000
1835	0.0150	0.0290	-0.0170	-0.1310	0.0830	0.0000
1836	-0.0280	0.0240	-0.0130	0.1300	0.0800	0.0000
1837	0.0280	0.0160	-0.0163	0.1300	0.0800	0.0000
1838	0.0220	0.0350	0.0240	-0.1270	0.0830	0.0000
1839	0.0130	0.0340	-0.0400	-0.1270	0.0830	0.0000
1840	0.0240	0.0340	-0.0400	-0.1270	0.0830	0.0000
1841	-0.0060	0.0510	-39.0000	-0.1770	0.0800	0.0000
1842	0.0230	0.0000	-39.0000	-0.1770	0.0800	0.0000
1843	-0.0290	0.0300	35.0000	-0.1780	0.0760	0.0000
1844	-0.0220	0.0300	35.0000	-0.1780	0.0760	0.0000
1845	0.0170	0.0562	0.0090	-0.1780	0.0850	0.0000
1846	0.0270	0.0562	0.0090	-0.1780	0.0850	0.0000
1847	0.0370	0.0220	0.0280	-0.1800	0.0890	0.0000
1848	0.0370	0.0220	0.0280	-0.1800	0.0890	0.0000
1849	-0.0020	35.0000	0.0300	-0.1720	0.0870	0.0000
1850	-0.0130	0.0130	-0.0580	-0.1740	0.0810	0.0000
1851	0.0593	0.0130	-0.0580	-0.1740	0.0810	0.0000
1852	0.0090	0.0280	0.0000	-0.1780	0.0850	0.0000
1853	-0.0500	0.1770	0.0170	-0.1750	0.0850	0.0000
1854	-0.0290	0.0410	-0.0820	-0.1760	0.0860	0.0000
1855	0.0190	0.0460	-0.0140	-0.1770	0.0900	0.0000
1856	0.0050	0.0210	-0.0220	-0.1790	0.0890	0.0000
1857	0.0190	0.0240	-0.0250	-0.1810	0.0930	0.0000
1858	-0.0010	0.0380	-0.0420	-0.1820	0.0880	0.0000
1859	0.0380	0.0390	0.0320	-0.1810	0.0900	0.0000
1860	0.0360	0.0330	0.0240	-0.1800	0.0890	0.0000
1861	-0.0030	0.0250	-0.0790	-0.1820	0.0870	0.0000
1862	-0.0560	0.0550	-0.0310	-0.1870	0.0880	0.0000
1863	0.0120	0.0260	0.0060	-0.1830	0.0880	0.0000
1864	0.0430	0.0300	0.0050	-0.1860	0.0890	0.0000
1865	0.0130	0.0430	-0.0160	-0.1920	0.0880	0.0000
1866	0.0120	0.0350	-0.0460	-0.1930	0.0910	0.0000
1867	-0.0170	0.0250	-0.0160	-0.1880	0.1380	0.0000
1868	0.0210	0.0190	-0.0150	-0.1940	0.1430	0.0000
1869	0.0680	0.0550	0.0230	-0.1980	0.1390	0.0000
1870	0.0160	0.0460	0.0430	-0.2000	0.1330	0.0000
1871	0.0430	0.0550	0.0030	-0.2000	0.1310	0.0000
1872	0.0060	0.0390	0.0140	-0.2010	0.1300	0.0000
1873	0.0390	0.0310	0.0070	-0.1990	0.1280	0.0000
1874	0.0180	0.0400	-0.0400	-0.2030	0.1270	0.0000
1875	-0.0080	0.0200	-0.0530	-0.2020	0.1240	0.0000
1876	0.0390	0.0490	0.0440	-0.2050	0.1710	0.0000
1877	0.0580	0.0390	-0.0080	-0.2100	0.1700	0.0000
1878	0.0440	0.0230	-0.0040	-0.2130	0.1670	0.0000
1879	-0.0220	0.0240	-0.0120	-0.2150	0.1680	0.0000
1880	0.0460	0.0350	-0.0010	-0.2170	0.1660	0.0000
1881	0.0350	0.0350	0.0240	-0.2160	0.1680	0.0000
1882	0.0200	0.0540	-0.0050	-0.2170	0.1690	0.0000
1883	-0.0040	0.0470	-0.0240	-0.2170	0.1700	0.0000
1884	0.0360	0.0470	-0.0330	-0.2140	0.1690	0.0000
1885	0.0620	0.0570	0.0500	-0.2140	0.1670	0.0000
1886	0.0340	0.0450	0.0180	-0.2090	0.1620	0.0000
1887	0.0040	0.0260	0.0050	-0.2030	0.1650	0.0000
1888	0.0110	0.0340	-0.0640	-0.2020	0.1720	0.0000
1889	0.0560	0.0360	0.0090	-0.2050	0.1780	0.0000
1890	0.0500	0.0480	0.0150	-0.2070	0.1760	0.0000
1891	0.0170	0.0470	0.0120	-0.2020	0.1750	0.0000
1892	0.0230	0.0530	-0.0300	-0.2490	0.1750	0.0000
1893	0.0320	0.0470	-0.0170	-0.2450	0.1720	0.0000
1894	0.0460	0.0530	0.0140	-0.2500	0.1690	0.0000
1895	0.0130	0.0610	-0.0220	-0.2470	0.1680	0.0000
1896	0.0180	0.0500	0.0120	-0.2470	0.1740	0.0000
1897	-0.0150	0.0580	-0.0260	-0.2470	0.1720	0.0000
1898	0.0160	0.0280	-0.0330	-0.2410	0.1710	0.0000
1899	0.0160	0.0560	0.0180	-0.2410	0.1720	0.0000
1900	0.0150	0.0660	0.0280	-0.2380	0.1690	0.0000
1901	0.0120	0.0440	-0.0330	-0.2370	0.1690	0.0000
1902	0.0410	0.0400	-0.0480	-0.2410	0.1680	0.0000
1903	-0.0050	0.0240	-0.0460	-0.2430	0.1630	0.0000
1904	0.0120	0.0350	-0.0060	-0.2450	0.1600	0.0000
1905	0.0350	0.0570	0.0250	-0.2420	0.1600	0.0000
1906	0.0690	0.0440	-0.0240	-0.2390	0.1650	0.0000
1907	0.0160	0.0420	-0.0350	-0.2390	0.1600	0.0000
1908	0.0380	0.0390	-0.0110	-0.2410	0.1540	0.0000
1909	0.0150	0.0300	-0.0110	-0.2420	0.1520	0.0000
1910	0.0420	0.0330	0.0280	-0.2400	0.1530	0.0000
1911	0.0450	0.0410	0.0320	-0.2380	0.1550	0.0000
1912	-0.0050	0.0500	-0.0250	-0.2300	0.1540	0.0000
1913	0.0210	0.0420	-0.0320	-0.2260	0.1520	0.0000
1914	0.1360	0.0180	0.0140	-0.2250	0.1520	0.0000
1915	0.0510	0.0470	-0.0150	-0.2230	0.1480	0.0000
1916	-0.0090	0.0370	-0.0480	-0.2220	0.1400	0.0000
1917	-0.0220	0.0210	-0.0320	-0.2210	0.1420	0.0000
1918	0.0100	0.0340	-0.0090	-0.2220	0.1420	0.0000
1919	0.0080	0.0390	0.0190	-0.2260	0.1410	0.0000
1920	0.0350	0.0480	-0.0060	-0.2240	0.1420	0.0000
1921	-0.0010	0.0200	-0.0330	-0.2210	0.1400	0.0000
1922	0.0120	0.0390	-0.0370	-0.2230	0.1360	0.0000
1923	0.0160	0.0450	-0.0030	-0.2240	0.1360	0.0000
1924	0.0030	0.1940	0.0040	-0.2210	0.1380	0.0000
1925	0.0220	0.0620	-0.0300	-0.2160	0.1340	0.0000
1926	0.0330	0.0210	-0.0260	-0.2200	0.1370	0.0000
1927	0.0240	0.0310	-0.0160	-0.2200	0.1320	0.0000
1928	0.0220	0.0430	0.0080	-0.2150	0.1280	0.0000
1929	0.0250	0.0470	0.0360	-0.2160	0.1260	0.0000
1930	0.0210	0.0560	-0.0310	-0.2160	0.1190	0.0000
1931	-0.0120	0.0380	-0.0040	-0.2150	0.1220	0.0000
1932	0.0550	0.0350	0.0040	-0.2150	0.1170	0.0000
1933	0.0130	0.0340	-0.0180	-0.2150	0.1140	0.0000
1934	-0.0150	0.0270	0.0080	-0.2120	0.1080	0.0000
1935	0.0190	0.0310	0.0010	-0.2110	0.1070	0.0000
1936	0.0270	0.0420	-0.0310	-0.2070	0.1080	0.0000
1937	0.0250	0.0450	0.0050	-0.2070	0.1040	0.0000
1938	-0.0190	0.0300	-0.0370	-0.2060	0.0990	0.0000
1939	-0.0160	0.0450	0.0030	-0.2100	0.1040	0.0000
1940	0.0380	0.0330	-0.0120	-0.2070	0.1050	0.0000
1941	0.0470	0.0280	-0.0020	-0.2070	0.1070	0.0000
1942	0.0160	0.0460	-0.0420	-0.2040	0.1040	0.0000
1943	-0.0010	0.0400	0.0010	-0.2050	0.1030	0.0000
1944	0.0390	0.0370	0.1620	-0.2070	0.1010	0.0000
1945	0.0160	0.0340	-0.0430	-0.2100	0.0990	0.0000
1946	0.0000	0.0190	0.0020	-0.2080	0.0950	0.0000
1947	0.0150	0.0450	-0.0760	-0.2070	0.0930	0.0000
1948	0.0080	0.0280	-0.0220	-0.2000	0.0540	0.0000
1949	0.0080	0.0280	-0.0220	-0.2000	0.0540	0.0000
1950	0.1310	0.0470	0.0490	-0.1990	0.0550	0.0000
1951	0.0020	0.0290	0.0170	-0.1990	0.0520	0.0000
1952	0.0020	0.0290	0.0170	-0.1990	0.0520	0.0000
1953	-0.0130	0.0370	0.0460	-0.1350	-1.4980	0.0000
1954	0.0290	0.0200	0.0080	-0.1990	0.0470	0.0000
1955	-0.0310	0.0430	0.0020	-0.1600	0.0420	0.0000
1956	0.0040	0.0320	0.0060	-0.1580	0.0430	0.0000
1957	0.0120	0.0180	-0.0140	-0.1570	0.0470	0.0000
1958	0.0310	0.0390	0.0240	-0.1590	0.0430	0.0000
1959	0.0280	0.0190	0.0330	-0.1550	0.0430	0.0000
1960	-0.0380	0.0350	-0.0100	-0.1510	0.0420	0.0000
1961	0.0090	-0.1160	-0.0420	-0.1500	0.0390	0.0000
1962	0.0150	0.0240	-0.0260	-0.1580	0.0380	0.0000
1963	-0.0110	0.0490	-0.0170	-0.1560	0.0380	0.0000
1964	-0.0110	0.0340	-0.0110	-0.2010	0.0400	0.0000
1965	0.0100	0.0460	0.0110	-0.2000	0.0430	0.0000
1966	0.0360	0.0350	0.0540	-0.1990	0.0410	0.0000
1967	0.0380	0.0360	0.0520	-0.2010	0.0390	0.0000
1968	-0.0060	0.0340	-0.0020	-0.2010	0.0330	0.0000
1969	-0.0070	0.0600	0.0100	-0.2000	0.0340	0.0000
1970	0.0130	0.0500	-0.0120	-0.1970	0.0250	0.0000
1971	0.0110	0.0550	-0.0260	-0.1960	0.0210	0.0000
1972	-0.0270	0.0330	0.0280	-0.1920	0.0180	0.0000
1973	-0.0220	0.0130	-0.0220	-0.1950	0.0210	0.0000
1974	-0.0030	0.0450	-0.0050	-0.2040	0.0240	0.0000
1975	-0.0070	0.0510	0.0300	-0.1980	0.0280	0.0000
1976	-0.0130	0.0340	-0.0070	-0.1970	0.0280	0.0000
1977	-0.0160	0.0070	-0.0270	-0.2000	0.0300	0.0000
1978	0.0090	0.0470	0.0010	-0.2030	0.0360	0.0000
1979	-0.0020	0.0280	-0.0480	-0.1980	0.0340	0.0000
1980	-0.0220	0.0520	0.0440	-0.1990	0.0340	0.0000
1981	-0.0040	0.0450	0.0240	-0.2020	0.0300	0.0000
1982	-0.0160	0.0380	-0.0290	-0.1990	0.0300	0.0000
1983	0.0170	0.0480	-0.0370	-0.2470	0.0270	0.0000
1984	0.0030	0.0560	0.0210	-0.2480	0.0260	0.0000
1985	0.0030	0.0220	0.0180	-0.2410	0.0270	0.0000
1986	-0.0380	0.0430	-0.0210	-0.2390	0.0260	0.0000
1987	-0.0160	0.0580	-0.0330	-0.2380	0.0290	0.0000
1988	0.0140	0.0360	-0.0280	-0.2390	0.0330	0.0000
1989	0.0150	0.0700	0.0210	-0.2410	0.0340	0.0000
1990	0.0060	0.0530	0.0340	-0.2390	0.0330	0.0000
1991	-0.0270	0.0540	0.0040	-0.2390	0.0310	0.0000
1992	0.0320	0.0350	0.0330	-0.2400	0.0330	0.0000
1993	0.0080	0.0430	0.0000	-0.2390	0.0350	0.0000
1994	0.0120	0.0670	-0.0270	-0.2380	0.0350	0.0000
1995	-0.0170	0.0450	-0.0400	-0.2370	0.0350	0.0000
1996	0.1300	0.0310	0.0120	-0.2330	0.0370	0.0000
1997	0.0570	0.0410	-0.0080	-0.2340	0.0330	0.0000
1998	0.0060	0.0590	0.0000	-0.2300	0.0320	0.0000
1999	-0.0340	0.0410	-0.0010	-0.2270	0.0290	0.0000
2000	0.0310	0.0430	-0.0110	-0.2280	0.0310	0.0000
2001	0.0140	0.0510	0.0330	-0.2730	0.0300	0.0000
2002	0.0120	0.0530	-0.0210	-0.2720	0.0320	0.0000
2003	0.0200	0.0530	-0.0210	-0.2720	0.0320	0.0000
2004	0.0100	0.0610	0.0190	-0.2770	0.0350	0.0000
2005	-0.0200	0.0690	-0.0540	-0.2760	0.0330	0.0000
2006	0.0200	0.0320	0.0000	-0.2740	0.0260	0.0000
2007	-0.0170	0.0480	0.0070	-0.2740	0.0220	0.0000
2008	0.0280	0.0390	-0.0670	-0.2780	0.0240	0.0000
2009	0.0190	0.0560	0.0100	-0.2770	0.0230	0.0000
2010	0.0070	0.0370	0.0450	-0.2820	0.0240	0.0000
2011	-0.0100	0.0130	-0.0530	-0.2860	0.0220	0.0000
2012	0.0360	0.0580	0.0250	-0.2910	0.0210	0.0000
2013	0.0410	0.0630	0.0040	-0.2860	0.0190	0.0000
2014	0.0120	0.0640	0.0270	-0.2850	0.0180	0.0000
2015	0.0120	0.0470	0.0390	-0.2900	0.0140	0.0000
2016	-0.0230	0.0620	-0.0120	-0.2910	0.0100	0.0000
2017	0.0280	0.0350	-0.0280	-0.2880	0.0130	0.0000
2018	0.0250	0.0330	-0.0240	-0.2870	0.0110	0.0000
2019	-0.0140	0.0500	-0.0550	-0.2850	0.0110	0.0000
2020	-0.0100	0.0550	-0.0050	-0.2850	0.0120	0.0000
2021	0.0210	0.0320	0.0300	-0.2840	0.0130	0.0000
2022	0.0210	0.0500	0.0310	-0.2880	0.0120	0.0000
2023	-0.0130	0.0540	-0.0180	-0.2880	0.0050	0.0000
2024	-0.0300	0.0650	0.0040	-0.2850	-0.0010	0.0000
2025	0.0010	0.0370	-0.0020	-0.2870	-0.0060	0.0000
2026	-0.0070	0.0370	-0.0740	-0.2880	-0.0090	0.0000
2027	-0.0400	0.0710	-0.0360	-0.2880	-0.0100	0.0000
2028	-0.0190	0.0540	-0.0150	-0.2850	-0.0040	0.0000
2029	0.0070	0.0520	-0.0060	-0.2900	-0.0040	0.0000
2030	0.0290	0.0450	0.0310	-0.2920	-0.0030	0.0000
2031	-0.0200	0.0320	-0.0120	-0.2930	0.0000	0.0000
2032	0.0130	0.0560	-0.0120	-0.2940	0.0000	0.0000
2033	-0.0120	0.2110	-0.0340	-0.2920	0.0010	0.0000
2034	-0.0230	0.0410	-0.0100	-0.2870	0.0030	0.0000
2035	-0.0210	0.0440	-0.0080	-0.2880	0.0010	0.0000
2036	0.0210	0.0530	-0.0060	-0.2960	0.0050	0.0000
2037	-0.0130	0.0600	-0.0140	-0.2990	0.0080	0.0000
2038	-0.0140	0.0420	-0.0330	-0.3020	0.0090	0.0000
2039	-0.0100	0.0690	0.0340	-0.3020	0.0070	0.0000
2040	-0.0010	0.0500	-0.0080	-0.3050	0.0080	0.0000
2041	-0.0020	0.0480	-0.0480	-0.3090	0.0040	0.0000
2042	-0.0350	0.0520	0.0710	-0.3070	0.0040	0.0000
2043	0.0220	0.0510	0.0060	-0.3080	0.0050	0.0000
2044	-0.0350	0.0690	0.0070	-0.3110	0.0080	0.0000
2045	0.0010	0.0540	-0.0220	-0.3100	0.0130	0.0000
2046	0.0430	0.0700	0.0110	-0.3000	-1.3010	0.0000
2047	-0.0050	0.0760	0.0350	-0.3120	0.0600	0.0000
2048	0.0040	0.0310	-0.0060	-0.3120	0.0600	0.0000
2049	-0.0200	0.0660	-0.0290	-0.3100	-0.5200	0.0000
2050	0.0080	0.2060	-0.0060	-0.3110	0.0130	0.0000
2051	0.0080	0.2060	-0.0060	-0.3110	0.0130	0.0000
2052	-0.0340	0.0620	0.0200	-0.3130	0.0090	0.0000
2053	-0.0250	0.0480	0.0070	-0.3110	0.0070	0.0000
2054	0.0010	0.0610	-0.0210	-0.3130	0.0010	0.0000
2055	0.0120	0.0340	0.0400	-0.3150	-0.0040	0.0000
2056	-0.0170	0.0360	-0.0010	-0.3140	-0.0040	0.0000
2057	-0.0180	0.0520	-0.0370	-0.3130	-0.0060	0.0000
2058	-0.0170	0.0690	-0.0290	-0.3100	-0.0050	0.0000
2059	-0.0130	0.0430	0.0360	-0.3060	-0.0030	0.0000
2060	0.0200	0.0470	0.0250	-0.3120	-0.0050	0.0000
2061	-0.0250	0.0610	-0.0200	-0.3090	-0.0050	0.0000
2062	-0.0040	0.0700	0.0260	-0.3090	0.0020	0.0000
2063	0.0090	0.0660	-0.0280	-0.3090	0.0020	0.0000
2064	-0.0070	0.0460	-0.0140	-0.3100	0.0600	0.0000
2065	-0.0010	0.0370	0.0270	0.0000	0.0600	0.0000
2066	0.0030	0.0400	-0.0530	-0.3150	0.0060	0.0000
2067	0.0000	0.0790	-0.0410	-0.3150	0.0060	0.0000
2068	-0.0120	0.0650	-0.0020	-0.3100	0.0070	0.0000
2069	0.0050	0.0690	0.0230	-0.3091	0.0070	0.0000
2070	-0.0210	0.0440	0.0180	-0.3000	0.0020	0.0000
2071	-0.0140	0.0640	-0.0180	-0.0700	0.0010	0.0000
2072	-0.0370	0.0740	0.0260	0.0000	0.0030	0.0000
2073	-0.0170	0.0560	-0.0060	-0.3040	0.0040	0.0000
2074	-0.0180	0.0640	-0.0060	-0.3080	0.0030	0.0000
2075	0.0320	0.0780	-0.0266	-0.3080	0.0030	0.0000
2076	0.0020	0.0390	-0.0266	-0.3080	0.0030	0.0000
2077	0.0140	0.0680	-0.0310	-0.3120	0.0030	0.0000
2078	0.0000	0.0800	-0.0310	-0.3120	0.0030	0.0000
2079	-0.0090	0.0330	0.0000	-0.3120	0.0030	0.0000
2080	0.0300	0.0330	0.0000	-0.3120	0.0030	0.0000
2081	-0.0150	0.0480	0.0100	-0.3050	0.0060	0.0000
2082	-0.0200	0.0480	0.0100	-0.3050	0.0060	0.0000
2083	-0.0130	0.0440	-0.0240	-0.2680	0.0000	0.0000
2084	0.0013	0.0440	-0.0240	-0.2680	0.0000	0.0000
2085	0.0180	0.0530	0.0120	-0.2690	-0.0040	0.0000
2086	0.0160	0.0660	0.0370	-0.2670	-0.0040	0.0000
2087	-0.0070	0.0550	0.0100	-0.2660	-0.0040	0.0000
2088	-0.0170	0.0550	0.0100	-0.2660	-0.0040	0.0000
2089	0.0117	0.0410	-0.0030	-0.2600	-0.0040	0.0000
2090	0.0140	0.0690	-0.0180	-0.2570	-0.0060	0.0000
2091	0.0260	0.0520	-0.0030	-0.2560	-0.0030	0.0000
2092	-2.0000	0.0430	0.0060	-0.2560	-0.0010	0.0000
2093	-0.0170	0.0750	-0.0620	-0.2560	-0.0020	0.0000
2094	-0.0110	0.0730	-0.0180	-0.2530	-0.0020	0.0000
2095	-0.0270	0.0600	0.0120	-0.2510	-0.0060	0.0000
2096	0.0010	0.0410	0.0370	-0.2470	-0.0010	0.0000
2097	-0.0070	0.0300	0.0180	-0.2470	0.0000	0.0000
2098	-0.0380	0.0640	-0.0190	-0.2460	0.0030	0.0000
2099	0.0210	0.0520	0.0100	-0.2480	0.0050	0.0000
2100	0.0290	0.0320	-0.0170	-0.2430	0.0060	0.0000
2101	-0.0030	0.0460	0.0100	-0.2020	-0.8370	0.0000
2102	0.0110	0.0310	0.0010	-0.2020	-0.8370	0.0000
2103	0.0060	0.0340	-0.0520	0.2400	0.0080	0.0000
2104	-0.0020	0.0540	-0.0170	0.0110	-0.8720	0.0000
2105	-0.0040	0.0290	-0.0220	-0.2440	0.0130	0.0000
2106	-0.0120	0.0400	-0.0220	-0.2430	0.0180	0.0000
2107	0.0080	0.0340	-0.0220	-0.2430	0.0180	0.0000
2108	-0.0120	0.0480	-0.4300	-0.2400	0.0230	0.0000
2109	0.0400	0.0000	-0.4300	-0.2400	0.0230	0.0000
2110	0.0020	0.0650	0.0190	-0.2360	0.0190	0.0000
2111	-0.0290	0.0650	0.0190	-0.2360	0.0190	0.0000
2112	-0.0060	0.0320	-0.0150	-0.2410	0.0170	0.0000
2113	-0.0360	0.0320	-0.0150	-0.2410	0.0170	0.0000
2114	0.0360	0.0046	-0.0250	-0.2380	0.0150	0.0000
2115	0.0360	0.0046	-0.0250	-0.2380	0.0150	0.0000
2116	0.0360	0.0610	-0.0010	-0.2440	0.0160	0.0000
2117	-0.0360	0.0610	-0.0010	-0.2440	0.0160	0.0000
2118	0.0223	0.0470	0.0030	-0.2490	0.0240	0.0000
2119	0.0220	0.0600	0.0010	-0.2460	0.0280	0.0000
2120	-0.0010	0.0200	0.0380	-0.2470	0.0270	0.0000
2121	0.0180	0.0000	0.0170	-0.2530	0.0300	0.0000
2122	-0.0060	28.0000	-0.0160	-0.2520	0.0260	0.0000
2123	0.0230	28.0000	-0.0160	-0.2520	0.0260	0.0000
2124	0.0230	28.0000	-0.0160	-0.2520	0.0260	0.0000
2125	0.0050	0.0290	-0.0400	-0.2570	0.0270	0.0000
2126	0.0000	0.0280	-0.0160	-0.2530	0.0270	0.0000
2127	0.0020	0.0510	-0.0020	-0.2540	0.0240	0.0000
2128	0.0170	0.0320	0.0020	-0.2540	0.0250	0.0000
2129	-0.0250	0.0420	0.0040	-0.2550	0.0230	0.0000
2130	-0.0120	0.0510	-0.0170	-0.2530	0.0220	0.0000
2131	-0.0130	0.0370	-0.0260	-0.2500	0.0220	0.0000
2132	-0.0100	0.0390	-0.0250	-0.2510	0.0290	0.0000
2133	0.0550	0.0470	-0.0250	-0.2480	0.0290	0.0000
2134	0.0340	0.0470	-0.0400	-0.2450	0.0260	0.0000
2135	-0.0010	0.0240	0.0060	-0.2460	0.0260	0.0000
2136	-0.0080	0.0360	0.0340	-0.2050	0.0260	0.0000
2137	0.0300	0.0400	0.0480	-0.2050	0.0210	0.0000
2138	-0.0130	0.0420	-0.0490	-0.2060	0.0170	0.0000
2139	-0.0120	0.0350	-0.0340	-0.2040	0.0150	0.0000
2140	-0.0010	0.0440	-0.0390	-0.2030	0.0140	0.0000
2141	0.0080	0.0180	0.0410	-0.1990	0.0130	0.0000
2142	0.0260	0.0430	0.0040	-0.2000	0.0160	0.0000
2143	0.0240	0.0490	-0.0280	-0.1980	0.0200	0.0000
2144	-0.0040	0.0440	0.0060	-0.1950	0.0190	0.0000
2145	0.0004	0.0440	0.0060	-0.1950	0.0190	0.0000
2146	0.0020	0.0270	0.0460	-0.1920	0.0240	0.0000
2147	0.0020	0.0270	0.0460	-0.1920	0.0240	0.0000
2148	-0.0120	0.0240	-0.0090	-0.1920	0.0230	0.0000
2149	-0.0130	0.0360	0.0700	-0.1930	0.0230	0.0000
2150	0.0060	0.0190	0.0080	-0.1890	0.0210	0.0000
2151	-0.0070	0.0420	-0.0100	-0.1880	0.0220	0.0000
2152	-0.0060	0.0070	-0.0010	-0.1860	0.0230	0.0000
2153	-0.0210	0.0330	-0.0020	-0.1460	0.0210	0.0000
2154	0.0000	0.0090	0.0010	-0.1450	0.0200	0.0000
2155	-0.0130	0.0480	0.0010	-0.1510	0.0200	0.0000
2156	0.0020	0.0170	-0.0300	-0.1520	0.0220	0.0000
2157	0.0120	0.0280	0.0330	-0.1570	0.0230	0.0000
2158	0.0130	0.0310	0.0100	-0.1580	0.0270	0.0000
2159	0.0450	0.0300	0.0250	-0.1590	0.0200	0.0000
2160	-0.0030	0.0450	0.0030	-0.1550	0.0170	0.0000
2161	0.0350	0.0050	0.0020	-0.1570	0.0120	0.0000
2162	-0.0170	0.0190	0.0050	-0.1570	0.0150	0.0000
2163	0.0020	0.0230	-0.0610	-0.1560	0.0190	0.0000
2164	-0.0100	-0.0100	-0.0380	-0.1590	0.0230	0.0000
2165	-0.0150	0.0230	0.0370	-0.1600	0.0250	0.0000
2166	-0.0010	0.0430	0.0530	-0.1630	0.0250	0.0000
2167	0.0210	0.0360	-0.0080	-0.1600	0.0280	0.0000
2168	-0.0180	0.0430	-0.0130	-0.1620	0.0260	0.0000
2169	-0.0320	0.0230	-0.0580	-0.1620	0.0300	0.0000
2170	-0.0360	0.0350	0.0270	-0.1640	0.0310	0.0000
2171	-0.0070	0.0460	-0.0270	-0.1620	0.0310	0.0000
2172	0.0080	0.0320	-0.0660	-0.1590	0.0370	0.0000
2173	0.0450	0.0360	0.0380	-0.1610	0.0370	0.0000
2174	0.0000	0.0290	0.0090	-0.1570	0.0370	0.0000
2175	0.0400	0.0410	0.0340	-0.1580	0.0360	0.0000
2176	-0.1410	0.0290	-0.0040	-0.1610	0.0280	0.0000
2177	-0.0100	0.0440	-0.0220	-0.1610	0.0240	0.0000
2178	0.0060	0.0160	-0.0120	-0.1640	0.0240	0.0000
2179	-0.0040	0.0590	0.0330	-0.1650	0.0280	0.0000
2180	0.0220	0.0290	-0.0580	-0.1610	0.0290	0.0000
2181	-0.0030	0.0190	-0.0230	-0.1650	0.0280	0.0000
2182	0.0300	0.0610	0.0380	-0.1650	0.0260	0.0000
2183	0.0010	0.0460	0.0330	-0.1620	0.0270	0.0000
2184	0.0020	0.0280	-0.0490	-0.1670	0.0290	0.0000
2185	0.0430	0.0420	-0.0280	-0.1700	0.0300	0.0000
2186	-0.0020	0.0170	-0.0360	-0.1670	0.0290	0.0000
2187	-0.0030	0.0100	-0.0150	-0.1630	0.0280	0.0000
2188	0.0080	0.0420	-0.0250	-0.1690	0.0260	0.0000
2189	0.0070	0.0300	-0.0160	-0.1700	0.0270	0.0000
2190	0.0070	0.0450	-0.0540	-0.1670	0.0250	0.0000
2191	-0.0060	0.0610	0.0330	-0.1660	0.0310	0.0000
2192	0.0100	0.0540	-0.0190	-0.1640	0.0340	0.0000
2193	-0.0270	0.0500	-0.0190	-0.1680	0.0360	0.0000
2194	0.0090	0.0200	0.0060	-0.1710	0.0420	0.0000
2195	-0.0480	0.0530	0.0030	-0.1660	0.0500	0.0000
2196	0.0200	0.0180	-0.0060	-0.1660	0.0560	0.0000
2197	0.0210	0.0270	-0.0370	-0.1690	0.0590	0.0000
2198	0.0420	0.0320	-0.0520	-0.1700	0.0600	0.0000
2199	0.0240	0.0300	0.0060	-0.1270	0.0600	0.0000
2200	-0.0440	0.0130	-0.0420	-0.1260	0.0590	0.0000
2201	0.0180	0.0300	-0.0470	-0.1270	0.0580	0.0000
2202	0.0150	0.0090	-0.0210	-0.1280	0.0560	0.0000
2203	-0.0040	0.0200	0.0090	-0.1290	0.0630	0.0000
2204	-0.0010	0.0250	-0.0060	-0.1260	0.0620	0.0000
2205	0.0210	0.0500	-0.0370	-0.1270	0.0590	0.0000
2206	0.0000	0.0160	-0.0430	-0.1240	0.0590	0.0000
2207	-0.0120	0.0120	0.0410	-0.1230	0.0560	0.0000
2208	0.0160	0.0110	0.0130	-0.1170	0.0530	0.0000
2209	0.0170	0.0350	-0.0180	-0.1160	0.0560	0.0000
2210	0.0130	0.0380	-0.0160	-0.1200	0.0570	0.0000
2211	0.0040	0.0190	0.0360	-0.1250	0.0520	0.0000
2212	-0.0160	0.0150	-0.0250	-0.1160	0.0500	0.0000
2213	-0.0060	0.0190	0.0250	-0.1160	0.0520	0.0000
2214	-0.0040	0.0250	-0.0460	-0.1130	0.0500	0.0000
2215	-0.0040	0.0200	-0.0010	-0.1150	0.0450	0.0000
2216	0.0350	0.0300	0.0280	-0.1160	0.0480	0.0000
2217	0.0340	0.0050	-0.0180	-0.1180	0.0490	0.0000
2218	-0.0060	0.0140	0.0070	-0.1210	0.0490	0.0000
2219	-0.0230	0.0170	-0.0400	-0.1250	0.0510	0.0000
2220	0.0040	0.0130	-0.0130	-0.1230	0.0550	0.0000
2221	0.0070	0.0160	-0.0130	-0.1210	0.0570	0.0000
2222	-0.0100	0.1680	0.0410	-0.1260	0.0540	0.0000
2223	0.0250	0.0360	0.0100	-0.1230	0.0540	0.0000
2224	0.0280	0.0240	0.0230	-0.1250	0.0570	0.0000
2225	0.0300	-0.0050	0.0090	-0.1230	0.0570	0.0000
2226	0.0010	0.0230	-0.0250	-0.1230	0.0580	0.0000
2227	-0.0080	0.0030	-0.0360	-0.1270	0.0580	0.0000
2228	-0.0290	0.0030	-0.0060	-0.1320	0.0600	0.0000
2229	0.0060	0.0360	0.0170	-0.1330	0.0610	0.0000
2230	0.0080	0.0360	0.0340	-0.1300	0.0630	0.0000
2231	0.0320	0.0250	-0.0310	-0.1290	0.0630	0.0000
2232	0.0180	0.0220	0.0100	-0.1310	0.0660	0.0000
2233	-0.0210	0.0300	0.0240	-0.1310	0.0670	0.0000
2234	0.0000	0.0380	0.0200	-0.1780	0.0670	0.0000
2235	-0.0080	0.0430	-0.0240	-0.1800	0.0700	0.0000
2236	-0.0110	0.0290	-0.0120	-0.1820	0.0670	0.0000
2237	0.0170	0.0250	0.0080	-0.1780	0.0660	0.0000
2238	0.0160	0.0330	0.0210	-0.1760	0.0660	0.0000
2239	-0.0050	0.0530	-0.0150	-0.1820	0.0680	0.0000
2240	0.0250	0.0150	0.0190	-0.1850	0.0670	0.0000
2241	0.0360	0.0620	-0.0240	-0.1870	0.0690	0.0000
2242	0.0010	0.0240	-0.0100	-0.1870	0.0680	0.0000
2243	0.0170	0.0380	-0.0320	-0.1890	0.0650	0.0000
2244	0.0020	0.0280	-0.0550	-0.1880	0.0600	0.0000
2245	0.0050	0.0270	0.0100	-0.1890	0.0600	0.0000
2246	0.0140	0.0310	-0.0180	-0.1810	0.0570	0.0000
2247	0.0260	0.0170	-0.0120	-0.1830	0.0570	0.0000
2248	0.0100	0.0210	0.0150	-0.1850	0.0570	0.0000
2249	-0.0150	0.0380	-0.0350	-0.1850	0.0570	0.0000
2250	-0.0090	0.0530	0.0430	-0.1840	0.0590	0.0000
2251	0.0210	0.0220	-0.0130	-0.1780	0.0560	0.0000
2252	-0.0050	0.0220	-0.0290	-0.1760	0.0540	0.0000
2253	0.0070	0.0240	0.0390	-0.1750	0.0530	0.0000
2254	-0.0080	0.0570	0.0460	-0.1770	0.0470	0.0000
2255	-0.0230	0.0350	-0.0330	-0.1790	0.0500	0.0000
2256	-0.1120	0.0520	-0.0290	-0.1730	0.0480	0.0000
2257	0.0190	0.0230	0.0280	-0.1720	0.0570	0.0000
2258	-0.0140	0.0630	-0.0020	-0.1710	0.0520	0.0000
2259	0.0160	0.0090	0.0120	-0.1700	0.0510	0.0000
2260	0.0100	0.0350	-0.0120	-0.1740	0.0490	0.0000
2261	-0.0030	0.0400	-0.0210	-0.1740	0.0560	0.0000
2262	0.0140	0.0480	0.0560	-0.1760	0.0570	0.0000
2263	0.0090	0.0400	-0.0200	-0.1770	0.0500	0.0000
2264	-0.0080	0.0450	-0.0130	-0.1760	0.0500	0.0000
2265	0.0280	0.0290	-0.0250	0.0000	0.0500	0.0000
2266	0.0200	0.0520	0.0170	-0.1770	0.0000	0.0000
2267	0.0270	0.0280	0.0150	-0.1740	0.0690	0.0000
2268	0.0100	0.0180	-0.1090	-0.1760	0.0720	0.0000
2269	-0.0080	0.0470	-0.0270	-0.1770	0.0700	0.0000
2270	0.0280	0.0410	-0.0340	-0.1360	0.0072	0.0000
2271	0.0280	0.0270	0.0150	-0.1370	0.0066	0.0000
2272	0.0140	0.0240	0.0070	-0.1330	0.0660	0.0000
2273	-0.0530	0.0060	-0.0320	-0.1330	64.0000	0.0000
2274	0.0210	0.0180	-0.0050	-0.1363	64.0000	0.0000
2275	-0.0200	0.0170	0.0010	-0.1370	0.0630	0.0000
2276	-0.0170	0.0320	-0.0140	-0.1700	0.0670	0.0000
2277	0.0200	0.0420	-0.0290	0.0000	0.0680	0.0000
2278	-0.0140	0.0370	0.0070	-0.1360	0.0690	0.0000
2279	0.0360	0.0260	-0.0150	-0.1280	0.0690	0.0000
2280	0.0190	0.0500	0.0050	-0.1250	0.0640	0.0000
2281	-0.0130	0.0350	-0.0430	0.0580	-0.5290	0.0000
2282	0.0300	0.0155	-0.0430	0.0580	-0.5290	0.0000
2283	0.0100	0.0240	0.0338	-0.1240	0.0480	0.0000
2284	-0.0020	0.0140	0.0000	-0.1210	0.0490	0.0000
2285	0.0060	0.1550	-0.0230	0.0000	0.0450	0.0000
2286	0.0090	0.0220	-0.0060	-0.1200	0.0450	0.0000
2287	-0.0260	0.0310	-0.0090	0.0480	-0.4140	0.0000
2288	0.0050	0.0240	0.0200	9.0000	-0.1160	0.0000
2289	0.0320	0.0310	0.0010	9.0000	-0.1160	0.0000
2290	-0.0140	0.0030	-0.1000	-0.1140	0.0490	0.0000
2291	-0.0450	0.0090	-0.0040	-0.1120	0.0470	0.0000
2292	0.0110	0.0240	-0.0150	-0.1140	0.0490	0.0000
2293	0.1170	0.0380	0.0150	-0.1160	0.0480	0.0000
2294	-0.0040	0.1690	-0.1210	0.0470	-0.4570	0.0000
2295	-0.0090	-0.0080	0.0040	-0.1190	0.0460	0.0000
2296	0.0180	0.0000	-0.0470	-0.1140	0.0460	0.0000
2297	0.0380	0.0130	0.0060	-0.0730	0.0460	0.0000
2298	0.0100	0.0080	-0.0070	-0.0740	0.0440	0.0000
2299	-0.0040	0.0360	0.0260	-0.0770	0.0410	0.0000
2300	-0.0040	0.0120	-0.0190	-0.0790	0.0390	0.0000
2301	-0.0110	0.0120	0.0160	-0.0830	0.0340	0.0000
2302	0.1090	0.0220	-0.0180	-0.0850	0.0340	0.0000
2303	-0.0440	0.0240	-0.0190	-0.0850	0.0300	0.0000
2304	-0.0180	0.0410	0.0050	-0.0850	0.0280	0.0000
2305	-0.0040	-0.0020	0.0120	-0.0790	0.0260	0.0000
2306	0.0250	0.0200	0.0210	-0.0790	0.0290	0.0000
2307	-0.0130	0.0040	-0.0400	-0.0820	0.0260	0.0000
2308	0.0380	-0.0070	0.0150	-0.0840	0.0280	0.0000
2309	0.0240	0.0000	0.0080	-0.0850	0.0330	0.0000
2310	-0.0060	-28.0000	-0.0240	-0.0810	0.0290	0.0000
2311	0.0050	-28.0000	-0.0240	-0.0810	0.0290	0.0000
2312	-0.0060	0.0170	-0.0870	0.0300	-1.3860	0.0000
2313	-0.0060	0.0100	-0.0280	-0.0870	0.0300	0.0000
2314	0.0004	0.0200	0.0160	-0.0830	0.0290	0.0000
2315	0.0010	0.0250	-0.0530	-0.0780	0.0320	0.0000
2316	-33.0000	0.0140	-0.0080	-0.0790	0.0340	0.0000
2317	-0.0080	0.0100	-0.0340	-0.0820	0.0310	0.0000
2318	0.0550	0.0050	0.0230	-0.0830	0.0310	0.0000
2319	0.1150	0.0050	0.0230	-0.0830	0.0310	0.0000
2320	0.0170	0.0080	-0.0280	-0.0870	0.0190	0.0000
2321	0.0010	-0.1280	-0.0030	-0.0850	0.0180	0.0000
2322	-13.0000	0.0320	0.0080	-0.0860	0.0190	0.0000
2323	-0.0030	0.0110	-0.0190	-0.0830	0.0200	0.0000
2324	-0.0030	0.0180	0.0190	-0.0850	0.0210	0.0000
2325	0.0010	0.0100	-0.0110	-0.0810	0.0210	0.0000
2326	-0.0370	0.0280	-0.0140	-0.0830	0.0210	0.0000
2327	0.0380	0.0300	-0.0010	-0.0820	0.0220	0.0000
2328	0.0260	0.0270	0.0080	-0.0840	0.0240	0.0000
2329	-0.1550	0.0490	-0.0110	-0.0860	0.0210	0.0000
2330	0.0230	0.0190	0.0030	-0.0860	0.0210	0.0000
2331	-0.0190	0.0180	-0.0060	-0.0800	0.0220	0.0000
2332	0.0160	0.0290	0.0090	-0.0750	0.0200	0.0000
2333	-0.0040	0.0210	0.0160	-0.0750	0.0200	0.0000
2334	-0.0310	0.0010	-0.0030	-0.0760	0.0180	0.0000
2335	0.0120	0.0090	-0.0170	-0.0770	0.0200	0.0000
2336	0.0340	0.0300	-0.0060	-0.0780	0.0210	0.0000
2337	0.0040	0.0100	-0.0300	-0.0730	0.0230	0.0000
2338	0.0310	0.0060	0.0130	-0.0740	0.0270	0.0000
2339	0.0220	0.0220	0.0130	-0.0750	0.0270	0.0000
2340	-0.0160	-0.1250	-0.0210	-0.0770	0.0250	0.0000
2341	0.0340	0.0070	-0.0180	-0.0810	0.0260	0.0000
2342	0.0110	0.0110	0.0280	-0.0800	0.0280	0.0000
2343	-0.0320	0.0200	0.0010	-0.0390	0.0290	0.0000
2344	0.0210	0.0210	0.0120	-0.0440	0.0220	0.0000
2345	0.0210	0.0210	0.0120	-0.0440	0.0220	0.0000
2346	-0.0040	0.0060	-0.0080	-0.0470	0.0160	0.0000
2347	-0.0040	0.0060	-0.0080	-0.0470	0.0160	0.0000
2348	-0.0130	-0.0050	-0.0350	-0.0550	0.0170	0.0000
2349	0.0200	0.0060	0.0120	-0.0540	0.0170	0.0000
2350	-0.0040	-0.0100	0.0190	-0.0560	0.0150	0.0000
2351	0.0210	-0.0010	-0.0270	-0.0600	0.0150	0.0000
2352	0.0200	0.0030	0.0250	-0.0620	0.0150	0.0000
2353	0.0150	0.0300	0.0020	-0.0630	0.0160	0.0000
2354	-0.0500	0.0230	0.0030	-0.0620	0.0190	0.0000
2355	-0.0180	-0.0010	-0.0320	-0.0600	0.0250	0.0000
2356	-0.0420	0.0080	-0.0130	-0.0600	0.0280	0.0000
2357	0.0070	0.0130	-0.0040	-0.0610	0.0320	0.0000
2358	0.0120	0.0230	-0.0100	-0.0610	0.0320	0.0000
2359	-0.0120	0.0070	-0.0220	-0.0590	0.0320	0.0000
2360	0.0170	0.0000	-0.0320	-0.0580	0.0320	0.0000
2361	-0.0110	-0.0030	-0.0080	-0.0620	0.0300	0.0000
2362	-0.0010	0.0000	0.0000	-0.0620	0.0290	0.0000
2363	-0.0370	-0.0100	-0.0200	-0.0620	0.0370	0.0000
2364	0.0250	0.0080	-0.0140	-0.0610	0.0400	0.0000
2365	-0.0110	0.0270	0.0150	-0.0630	0.0440	0.0000
2366	0.0420	-0.1320	-0.0180	-0.0580	0.0400	0.0000
2367	0.0370	-0.0170	0.0000	-0.0600	0.0410	0.0000
2368	0.0120	-0.0070	-0.0280	-0.0580	0.4100	0.0000
2369	0.0180	0.0320	-0.0050	-0.0630	0.0360	0.0000
2370	0.0220	0.0190	0.0120	-0.0640	0.0000	0.0000
2371	-0.0030	0.0060	-0.0300	-0.0640	0.0351	0.0000
2372	-0.0350	0.0230	-0.0130	-0.0650	0.0351	0.0000
2373	0.0070	0.0040	-0.0210	-0.0640	0.0441	0.0000
2374	0.0190	0.0240	-0.0300	-0.0640	0.0441	0.0000
2375	-0.0350	0.1720	-0.0390	-0.0590	0.4900	0.0000
2376	0.0100	-0.0070	0.0320	-0.0570	0.0500	0.0000
2377	-0.0090	0.0120	-0.0060	-0.0570	0.0500	0.0000
2378	0.0320	0.0090	-0.0680	-0.0602	0.0470	0.0000
2379	0.0400	0.0130	0.0070	-0.0602	0.0470	0.0000
2380	0.0010	0.0160	-0.0130	-0.0900	0.0480	0.0000
2381	-0.0150	0.0350	0.0130	-0.0900	0.0480	0.0000
2382	-0.0180	0.0110	0.0360	-0.0670	0.0450	0.0000
2383	-0.0070	0.0340	0.0360	-0.0670	0.0450	0.0000
2384	0.0290	0.1530	-0.0130	-0.0710	0.0460	0.0000
2385	0.0030	0.0010	-0.0130	-0.0710	0.0460	0.0000
2386	0.0040	-0.0060	0.0000	-0.0740	0.0500	0.0000
2387	0.0000	0.0006	0.0000	-0.0740	0.0500	0.0000
2388	-0.0030	0.0080	0.0190	-0.0770	0.0540	0.0000
2389	0.0100	0.0000	0.0190	-0.0770	0.0540	0.0000
2390	-0.0050	0.0290	-0.0040	-0.0940	0.0580	0.0000
2391	0.0120	0.0290	-0.0040	-0.0940	0.0580	0.0000
2392	0.0020	0.0360	0.0040	-0.0890	0.0620	0.0000
2393	0.0190	0.0170	0.0180	-0.0890	0.0640	0.0000
2394	0.0290	0.0170	0.0180	-0.0890	0.0640	0.0000
2395	0.0100	0.0310	0.0050	-0.0930	0.0680	0.0000
2396	0.0100	0.0310	0.0050	-0.0930	0.0680	0.0000
2397	-0.0070	0.0210	-0.0030	-0.0920	0.0680	0.0000
2398	-0.0070	0.0210	-0.0030	-0.0920	0.0680	0.0000
2399	0.0000	0.0290	-0.0030	-0.1350	0.0730	0.0000
2400	0.0000	0.0390	-0.0130	-0.1390	0.0720	0.0000
2401	0.1390	0.0260	-0.0490	-0.1350	0.0710	0.0000
2402	0.1160	0.0450	-0.0030	-0.1350	0.0720	0.0000
2403	0.0220	-0.0120	-0.0270	-0.1310	0.0720	0.0000
2404	0.0140	0.0220	-0.0610	-0.1310	0.0700	0.0000
2405	0.0230	0.0100	-0.0290	-0.1300	0.0720	0.0000
2406	0.0100	0.0210	0.0000	-0.1310	0.0670	0.0000
2407	0.0200	0.0130	0.0050	-0.1330	0.0660	0.0000
2408	-0.0070	0.0190	-0.0260	-0.1360	0.0590	0.0000
2409	0.0260	0.0470	-0.0030	-0.1360	0.0630	0.0000
2410	0.0600	0.0390	-0.0150	-0.1300	0.0620	0.0000
