accelx	accely	accelz
0.6915	0.2429	9.5808
0.6951	0.2686	9.6269
0.6933	0.2746	9.6191
0.6790	0.2710	9.6352
0.6885	0.2548	9.6442
0.6975	0.2674	9.6388
0.6885	0.2500	9.6329
0.6748	0.2584	9.6903
0.6802	0.2453	9.7818
0.6628	0.2710	9.6143
0.6556	0.2578	9.6287
0.6861	0.2477	9.6161
0.6945	0.2471	9.6275
0.6897	0.2572	9.6059
0.6748	0.2578	9.6281
0.6855	0.2614	9.6305
0.6592	0.2548	9.6269
0.6873	0.2704	9.5982
0.7047	0.2560	9.6412
0.7095	0.2489	9.6526
0.6861	0.2578	9.6257
0.6975	0.2477	9.6616
0.6825	0.2560	9.6023
0.6772	0.2459	9.6059
0.6993	0.2548	9.6239
0.6814	0.2381	9.6484
0.6867	0.2357	9.6149
0.7059	0.2489	9.6335
0.6831	0.2363	9.6113
0.6742	0.2447	9.6376
0.6927	0.2620	9.6825
0.6963	0.2471	9.6269
0.6748	0.2506	9.6430
0.6981	0.2686	9.6119
0.6897	0.2548	9.6466
0.6772	0.2674	9.6490
0.6861	0.2578	9.6119
0.6568	0.2435	9.6047
0.7119	0.2554	9.6281
0.6730	0.2512	9.6269
0.7065	0.2327	9.6562
0.6790	0.2423	9.6245
0.6873	0.2710	9.6197
0.6658	0.2441	9.6083
0.6808	0.2465	9.6424
0.6963	0.2303	9.6293
0.6652	0.2626	9.5868
0.6461	0.2644	9.6442
0.6694	0.2489	9.6197
0.6802	0.2740	9.6107
0.6730	0.2806	9.6323
0.6676	0.2584	9.5916
0.6975	0.2327	9.6376
0.6730	0.2495	9.6412
0.6933	0.2692	9.4971
0.6742	0.2542	9.6179
0.6778	0.2662	9.6047
0.6664	0.2620	9.6574
0.6712	0.2524	9.6741
0.6820	0.2584	9.6233
0.6676	0.2578	9.6083
0.6921	0.2530	9.6502
0.7029	0.2584	9.6454
0.6778	0.2656	9.6149
0.6718	0.2489	9.6233
0.6772	0.2393	9.6329
0.6820	0.2818	9.6514
0.6730	0.2375	9.7980
0.6766	0.2554	9.5946
0.6694	0.2315	9.6598
0.6843	0.2548	9.6442
0.7256	0.2357	9.6221
0.6640	0.2632	9.7932
0.7059	0.2758	9.6454
0.6837	0.2578	9.5665
0.6730	0.2656	9.6215
0.7095	0.2471	9.6777
0.6658	0.2566	9.5922
0.6479	0.2477	9.6179
0.6945	0.2566	9.6526
0.6616	0.2500	9.6592
0.6664	0.2536	9.6382
0.6778	0.2453	9.6017
0.6945	0.2363	9.6101
0.6921	0.2423	9.6233
0.6586	0.2614	9.6293
0.6604	0.2506	9.6203
0.6927	0.2518	9.6586
0.6670	0.2405	9.6191
0.7023	0.2530	9.6681
0.6861	0.2441	9.6311
0.6760	0.2620	9.6526
0.6831	0.2291	9.6430
0.6748	0.2518	9.6101
0.6808	0.2716	9.6352
0.6837	0.2387	9.6101
0.6742	0.2608	9.6012
0.6784	0.2530	9.6382
0.6879	0.2734	9.6006
0.6855	0.2429	9.6885
0.6831	0.2542	9.5712
0.6592	0.2483	9.6424
0.6933	0.2710	9.6442
0.6897	0.2542	9.6299
0.6574	0.2524	9.6293
0.6616	0.2608	9.6849
0.6778	0.2506	9.6574
0.6658	0.2483	9.6640
0.6867	0.2614	9.6418
0.6790	0.2752	9.6095
0.6580	0.2853	9.6430
0.6987	0.2542	9.5808
0.7101	0.2500	9.6341
0.6861	0.2584	9.6311
0.6538	0.2512	9.6155
0.6766	0.2381	9.6257
0.6784	0.2752	9.6424
0.6927	0.2483	9.6430
0.6766	0.2572	9.6041
0.6808	0.2554	9.6107
0.6634	0.2548	9.6646
0.6772	0.2590	9.6424
0.7065	0.2542	9.6538
0.6688	0.2483	9.6460
0.6891	0.2530	9.6317
0.6479	0.2578	9.6209
0.6544	0.2572	9.7926
0.6664	0.2441	9.6017
0.6712	0.2512	9.6370
0.6508	0.2465	9.5844
0.6766	0.2429	9.6394
0.6640	0.2441	9.6179
0.6736	0.2512	9.6149
0.6640	0.2566	9.5910
0.6855	0.2435	9.6263
0.6784	0.2524	9.6245
0.6802	0.2375	9.6634
0.6861	0.2483	9.6640
0.6969	0.2608	9.6012
0.6909	0.2506	9.6430
0.6754	0.2554	9.5802
0.6736	0.2273	9.5994
0.7017	0.2477	9.6616
0.6658	0.2542	9.6454
0.6778	0.2602	9.6221
0.6604	0.2644	9.6251
0.6867	0.2512	9.6215
0.6604	0.2483	9.6604
0.6808	0.2572	9.6705
0.6712	0.2644	9.6251
0.6891	0.2620	9.6352
0.6802	0.2710	9.6364
0.6843	0.2560	9.6299
0.7274	0.2578	9.6646
0.6688	0.2620	9.6197
0.6652	0.2566	9.6035
0.6969	0.2674	9.6059
0.6736	0.2572	9.6376
0.6718	0.2465	9.6520
0.6927	0.2429	9.6532
0.6688	0.2566	9.6335
0.6957	0.2578	9.6711
0.6736	0.2435	9.6329
0.6670	0.2381	9.5916
0.6855	0.2602	9.6299
0.7053	0.2644	9.6364
0.6556	0.2560	9.6065
0.6622	0.2441	9.7704
0.7023	0.2381	9.6221
0.6897	0.2614	9.6275
0.6969	0.2542	9.6167
0.7005	0.2483	9.6311
0.7089	0.2495	9.6317
0.6574	0.2686	9.6197
0.6915	0.2447	9.6113
0.6688	0.2596	9.6029
0.6682	0.2656	9.6484
0.6706	0.2656	9.6370
0.6843	0.2536	9.6460
0.6760	0.2512	9.6035
0.6796	0.2536	9.6346
0.6987	0.2399	9.6155
0.6748	0.2512	9.6628
0.6796	0.2662	9.6281
0.6514	0.2698	9.6000
0.6808	0.2650	9.7752
0.6945	0.2506	9.6239
0.6796	0.2524	9.5730
0.6867	0.2495	9.6544
0.6861	0.2698	9.5509
0.6867	0.2608	9.6113
0.6706	0.2489	9.6646
0.6712	0.2578	9.5802
0.6562	0.2477	9.6137
0.6311	0.2829	9.6251
0.6873	0.2495	9.5916
0.6688	0.2638	9.6490
0.6526	0.2512	9.6125
0.6939	0.2602	9.6388
0.6377	0.2429	9.5820
0.6712	0.2716	9.6197
0.6825	0.2411	9.6257
0.6652	0.2668	9.6562
0.6808	0.2584	9.7830
0.6957	0.2632	9.6610
0.6861	0.2495	9.6424
0.6640	0.2524	9.6203
0.7077	0.2572	9.6167
0.6933	0.2584	9.7938
0.6802	0.2614	9.6388
0.6843	0.2512	9.5868
0.6843	0.2459	9.6520
0.6736	0.2465	9.5880
0.6724	0.2405	9.6388
0.7071	0.2405	9.6341
0.6820	0.2435	9.6209
0.6831	0.2572	9.6634
0.6814	0.2871	9.6233
0.6616	0.2489	9.6239
0.6969	0.2698	9.6867
0.6843	0.2333	9.6550
0.6939	0.2411	9.6299
0.7358	0.3164	9.5389
0.9416	0.4576	9.6346
0.4397	0.4457	9.8931
0.5432	0.7292	9.3218
0.7645	0.0108	8.7846
0.8273	0.3948	11.4364
-0.1101	-0.1525	9.4169
0.3332	0.2638	8.0177
1.4686	0.3410	9.5569
1.1474	-0.8022	8.9144
-0.2345	1.8526	10.4225
1.9549	-0.1041	9.5342
0.3715	-0.1053	9.7046
0.7214	0.7011	8.7032
-0.2076	1.2724	9.2333
0.6239	-0.2447	7.9884
0.8183	0.3691	9.5934
0.8261	0.6993	10.5631
1.3681	-0.1137	8.4670
-0.1071	0.1412	9.5814
1.1121	0.1836	9.8913
0.0598	0.2877	10.0911
1.1755	-1.0134	9.9003
1.3842	0.7436	9.8500
0.4941	-0.1430	9.3206
1.2688	0.2865	10.1288
0.2530	0.6449	10.1018
0.6227	0.5246	9.6221
0.9033	0.0000	9.2464
0.1250	0.3828	9.5844
0.6999	0.7914	9.7286
0.5049	0.5940	10.4087
0.7298	0.1884	9.9798
0.6437	0.3147	9.5491
1.0486	0.2477	10.0719
0.8034	0.4720	9.4516
0.5946	-0.0658	10.0534
0.2632	-0.4379	9.6963
0.4798	0.6700	11.0685
0.3834	0.6012	9.9846
0.3577	0.7932	8.7762
1.4010	0.1184	11.1768
1.0869	0.4684	10.5068
1.0941	0.2740	9.7675
0.5551	-0.0167	9.3409
0.9099	-0.3314	9.4313
1.1755	0.2381	9.8093
0.3170	-0.3996	9.5994
0.7292	0.2447	10.1024
0.5306	0.3410	9.5342
0.7819	0.4074	8.7625
0.5803	0.2572	9.1124
0.5174	1.0510	9.0574
0.6772	0.7286	8.4729
0.4510	0.3697	9.9535
0.5336	-0.1765	10.0899
0.9721	-0.4235	10.8197
0.7418	0.6574	10.0779
0.4349	0.5037	9.6975
0.8303	-0.3302	9.0119
1.2706	0.9637	9.7441
0.6873	0.7938	9.7692
0.1932	0.3679	10.2179
0.0694	-0.2740	10.2065
1.3543	-0.4068	9.5796
0.6520	0.5737	8.6883
0.3805	0.0772	8.7786
0.4062	0.8375	8.8331
0.8309	0.1705	10.7970
1.0253	0.3828	10.2311
0.7585	0.5815	8.8929
0.7555	0.1424	8.3234
0.4923	0.9218	9.6275
-0.0407	0.7956	10.8412
1.7432	-1.1892	10.6187
0.1101	1.1348	9.7621
0.4989	-0.4528	9.0149
1.1115	0.1681	9.3786
0.7765	0.2225	9.2530
0.7609	0.4295	9.0747
-0.1627	-0.4504	8.7768
0.4636	-0.2447	9.9320
0.5515	0.5192	10.3740
0.9918	0.3852	9.6221
0.4833	0.3697	9.4540
1.4022	0.3356	9.9003
0.6054	1.3310	10.2400
0.6724	-1.2287	9.3278
0.9978	0.6508	9.2416
0.5186	1.1133	9.5413
0.5109	-0.0915	9.1555
0.7220	-0.5240	9.6209
0.6820	0.5988	9.6759
0.1920	0.0999	9.4654
0.3817	-0.1585	9.2799
0.5856	1.0690	9.6592
0.0861	-0.9135	9.1148
1.0409	-0.7813	9.5838
0.6078	1.6032	9.4785
0.3272	1.0247	10.0995
0.8321	-0.5432	9.3924
0.4457	0.9069	9.0412
0.8668	-0.2919	9.4091
0.8165	0.4726	9.5760
0.5653	1.2479	9.7764
0.5916	-0.4827	9.6329
0.7621	0.2459	9.6131
0.5587	0.7023	10.1114
1.0439	-0.3422	9.7489
0.9709	0.7651	9.8512
1.0881	-0.6963	8.9724
0.0383	1.6205	9.7794
0.5180	0.6473	9.4055
0.8201	-0.0951	10.2496
0.3344	0.2919	9.6089
0.9942	-0.1801	9.9056
0.5240	0.1639	9.2913
0.3673	0.9721	9.7812
1.0259	0.1430	9.8368
0.4953	-0.1519	9.4247
0.9966	0.0712	10.1018
-0.0425	1.3077	9.6059
0.5593	-0.2728	10.0007
0.6006	0.7657	10.0025
0.8255	-0.1226	9.9810
0.8770	-0.1549	10.0319
0.5450	1.1779	10.5804
0.4522	0.4881	9.8285
0.3751	0.1274	9.4307
1.0720	0.6096	10.0450
0.7777	1.0229	8.8426
1.2891	-0.5970	9.4450
0.7489	0.2070	9.9296
0.8991	-0.0066	9.1369
0.8058	-0.1364	9.1669
0.9529	-0.1304	9.6771
0.1633	0.3045	9.1555
0.8225	-0.0144	9.9696
0.4050	0.7986	10.5152
0.7131	-0.7741	10.1234
0.7824	-0.2949	9.2668
0.9009	0.3452	9.4217
1.3693	1.3561	9.9960
0.5468	0.4175	8.9407
0.5486	1.1210	9.7172
0.7310	-0.4289	10.2951
0.2859	0.6030	9.5898
0.2602	-1.0044	9.3972
0.6975	0.5019	10.0672
1.3657	0.0820	10.4494
0.7089	0.1789	9.6478
1.0098	0.2034	9.7034
0.7310	0.3362	9.3158
0.9912	0.1478	9.8015
-0.1424	0.5994	8.8576
1.1491	-0.1155	10.0313
-0.0096	1.3454	9.5706
1.0504	-0.3685	9.8997
-0.1878	0.4923	10.5361
1.2006	-0.2219	9.6197
0.3296	0.1675	9.3882
1.2353	-0.4104	10.0013
0.3338	0.7705	10.4291
0.8435	0.2267	9.5347
0.4522	-0.7178	9.2039
1.5266	1.6038	9.3768
1.1091	0.2853	9.6945
-0.2566	1.1103	9.3009
0.9105	-0.1322	10.0654
0.6574	0.2949	9.2207
0.6933	0.5683	9.0448
0.6951	0.0138	8.7762
0.7442	0.8058	9.9332
-0.5198	0.7920	10.1288
0.9015	-0.4032	9.2536
1.2580	-0.1657	10.0917
0.2536	0.6915	9.2638
1.3980	-0.5976	10.0342
0.5761	0.2829	9.7525
0.7041	0.4989	10.5463
0.8626	-0.2824	9.8979
0.5480	0.0969	9.0257
0.4971	0.1053	9.4289
0.9685	0.4630	9.3206
0.6030	0.4026	10.1407
0.2847	0.0646	9.7286
1.3071	-0.6754	9.6293
0.7358	0.9380	9.0765
0.6323	0.1501	9.1070
1.1521	-0.0407	9.2691
0.7675	-0.1567	8.9497
0.6006	0.3745	9.9655
0.1202	0.1131	9.8464
0.0814	0.7627	9.1657
0.2303	0.7890	10.2538
0.6820	0.5121	9.8249
0.9422	0.4152	9.8620
0.7908	-0.2148	9.5551
0.0963	1.2598	9.9062
0.9822	-0.1047	10.0133
0.1507	-0.1077	9.5694
1.0385	0.7202	9.6514
-0.0544	1.1121	8.2594
1.1976	-0.4893	9.1950
0.7376	0.6024	10.5158
-0.3362	0.6048	9.3714
1.5470	-0.0688	9.3379
-0.0419	1.1922	10.0887
0.6209	0.1394	9.8279
0.4786	0.2662	9.2464
0.6359	0.2315	8.4753
0.5013	0.1023	9.1657
1.1809	0.2369	9.2955
0.3631	0.4911	8.6596
1.1485	-0.1011	8.9282
0.4337	1.2604	9.5377
0.5910	-0.0778	9.5192
0.4241	-0.0921	10.0863
0.4714	0.2758	9.8476
0.7777	0.2010	9.4247
0.8686	0.4331	9.0729
0.3966	0.4463	8.8725
1.2401	-0.1825	9.6741
0.3147	1.1396	9.0424
1.2012	0.1346	9.7052
0.8919	-0.2740	9.8596
0.5569	0.9565	9.4965
0.2614	0.1860	8.8857
1.1103	0.6700	9.5976
0.7053	0.3380	9.0699
1.2413	-0.4211	9.5742
0.5737	0.8506	9.4247
1.1085	-0.1531	8.7409
1.2371	0.2758	9.9152
0.4642	0.1005	9.1405
0.1705	0.1172	10.2741
1.0522	1.2413	10.0755
0.0497	-0.6329	9.4037
1.0146	-0.2058	10.0384
1.0319	-0.4211	9.2644
0.9386	-0.3565	10.0121
1.0361	0.2004	10.1461
0.8219	0.4469	9.5389
0.6144	0.1226	9.7256
0.6550	1.0714	9.9361
0.7382	0.3817	9.7142
0.1878	0.6185	10.1461
0.2004	-0.7155	9.3720
0.4792	0.1645	9.9009
0.3739	0.7023	10.3022
0.3206	-0.0610	9.8039
0.5904	-0.2088	9.3565
0.6700	0.0969	8.9760
1.0726	0.1376	9.7818
0.3212	0.0933	9.3391
0.5497	-0.3667	8.9437
0.7119	0.6329	10.1294
0.6897	0.0664	9.5682
0.7938	-0.3069	9.9158
0.6658	-0.0263	10.2897
0.9607	0.7795	9.9349
0.5420	0.3906	9.3936
0.8614	0.3464	10.1557
0.5719	0.1101	9.9086
0.5145	-0.0574	10.5266
1.0157	1.3035	10.1401
0.5701	0.1232	8.7248
0.8213	-0.0179	9.6999
0.8752	0.3846	8.7415
0.5671	1.3418	10.0109
0.9188	-0.4600	8.9611
0.4199	0.1292	9.8745
0.0784	0.3057	10.2382
1.1533	-0.7172	10.2005
0.0257	0.6407	9.2171
1.1288	-0.7077	9.5168
0.2542	0.6568	9.7675
2.0865	-0.5300	10.6845
0.0299	0.6652	10.5385
0.8417	-0.4020	9.5138
1.2993	-0.5665	10.0043
0.5127	0.6090	9.4211
0.6233	-0.4923	10.0749
0.1693	0.6975	10.1240
0.9332	-0.0945	9.2093
0.4175	0.5246	9.6012
0.5282	-0.2949	10.0498
0.0108	1.0804	10.1485
1.0146	-1.1468	9.1926
-0.0263	1.2012	9.6807
1.7396	-0.9063	9.1034
0.5934	0.6849	9.5521
1.6187	-1.1713	8.5190
-0.2010	1.4889	9.0053
0.3757	-0.3194	10.7335
0.0694	1.4375	10.7371
0.5593	-0.2608	9.6526
0.9811	0.1525	10.4285
1.5936	0.1866	10.0989
0.6592	1.1731	10.2263
1.2365	-0.9751	8.7553
0.9751	1.0044	9.3828
0.0586	-0.0975	10.0307
0.5222	1.0349	9.7770
0.5001	0.5450	9.2153
0.8148	0.0921	9.3355
1.0965	-0.1675	9.6472
-0.0999	1.4171	10.3369
1.1192	-0.4516	10.1222
0.8477	0.8034	9.0837
0.8871	0.0712	9.3056
0.8333	1.1468	9.8679
-0.2794	0.9942	9.9684
0.5306	-0.6790	10.5637
1.0026	0.7884	11.1403
1.2514	-0.1932	8.9054
1.0774	-0.0951	9.6616
0.8662	0.7131	10.1730
0.5348	-0.1220	9.4570
1.0504	0.4349	9.2500
1.3208	-0.0335	9.6143
0.6323	0.0586	9.0532
1.5194	0.3350	8.4801
-0.3218	0.1531	10.1066
1.3346	0.2668	9.0789
-0.1926	1.5260	9.6765
1.1174	-0.6825	10.3848
0.3039	1.1581	10.0360
0.5647	0.5426	10.1234
1.5828	-0.2028	9.5347
0.1472	0.8949	9.4707
1.8461	-0.9523	10.1491
0.4038	1.2532	10.9471
0.8333	-0.4827	10.6037
0.6437	0.1902	9.9266
0.8907	0.0144	9.3427
0.9236	0.0185	9.0628
0.7298	0.7095	8.5663
0.7041	0.0287	9.3547
0.5826	1.8389	9.9565
-0.1848	-0.2752	10.5403
0.6138	-0.0138	10.3363
1.0893	1.4465	9.7088
0.7980	0.1035	8.9383
1.3364	0.7603	10.5409
-0.1226	0.5109	10.7670
0.2566	0.3583	8.8223
1.1713	-0.4624	9.9744
0.1579	0.6664	7.9579
0.9051	-0.7944	8.3222
0.2973	1.0552	8.3366
1.3495	0.5803	11.5609
0.5515	0.3559	11.0249
1.4357	0.1585	9.4522
0.1543	-0.8668	9.3595
0.3296	1.0750	9.4360
1.1737	-0.5707	7.7647
0.3715	0.7478	8.0536
0.9619	0.4522	9.1525
0.5145	0.5001	9.5641
1.3950	0.6335	9.0831
0.3404	-0.0162	10.3782
0.2435	0.7304	9.7094
0.1759	0.1932	9.8111
0.9984	-0.3996	9.2566
-0.1501	0.8913	11.1625
0.6706	-0.1280	8.4777
1.4399	0.5240	9.3768
0.0251	0.5240	10.8388
-0.2453	0.7256	9.2482
0.4510	-0.4827	9.1615
0.7573	0.5970	10.3686
0.3422	1.1145	10.7754
0.6754	-0.7184	10.8969
1.5840	0.5282	9.1064
0.4373	0.2387	10.0821
0.4947	0.5701	10.0965
0.6556	-0.4205	9.9678
1.6798	0.7113	9.6520
0.2901	1.5523	11.3389
0.6167	-0.0849	10.4291
1.7127	-0.3505	9.8638
0.3404	-0.3817	9.4588
0.8477	-0.4833	9.8386
0.8818	-0.1663	9.5671
0.2189	-0.0820	8.8241
0.9164	0.7250	7.7473
0.5976	1.2203	10.7365
0.7908	0.5581	9.6358
0.1125	0.4792	9.0149
0.3840	-0.4349	9.3876
0.3176	-0.0700	9.9708
0.1131	0.8716	10.3980
1.1276	-0.1059	9.8913
0.3577	0.5832	9.4414
0.2530	0.4271	8.4999
1.4273	-0.1358	7.0169
0.2477	1.3980	10.3022
0.6867	0.1872	8.8133
0.6766	1.5308	9.3176
0.6610	-0.2907	8.3019
1.3220	0.7878	10.0390
0.7358	0.2160	9.6532
0.6036	1.1270	10.1802
0.7603	-0.0197	9.0155
0.5013	0.4618	10.3549
1.4698	-0.3649	10.3196
0.0323	-0.2303	10.5607
0.9667	0.4169	9.8039
-0.0610	0.9422	10.0558
0.6191	0.6383	10.8317
0.8195	0.6018	10.2454
1.1581	-0.3224	8.9772
0.4666	0.3284	9.7776
1.6833	0.1938	10.5373
0.3966	-0.5109	8.5525
1.9148	0.6024	11.0362
0.3960	-1.6457	9.2560
0.0120	1.2138	8.2672
1.2748	0.4570	8.8432
-0.4995	-0.6305	10.6815
1.6564	0.3015	8.5316
-0.1795	0.3488	9.8010
1.0253	-0.9332	8.8660
1.0504	0.4893	8.4676
0.6311	1.2138	9.5383
1.1820	-0.0317	10.2927
-0.6461	1.0259	9.6394
0.6999	1.4494	8.2283
1.3322	-0.0072	10.6049
0.6652	-0.5940	11.0817
0.7041	1.5446	10.1814
0.7896	0.8764	9.6699
1.0947	0.0156	8.3036
0.6084	-0.2477	9.4061
1.9501	-0.0353	10.2670
-0.0640	0.0090	9.8506
0.9206	-0.8608	9.6634
0.8806	0.7597	12.1896
0.1388	0.6963	11.8127
0.3230	-0.6514	10.1108
1.5499	-0.8483	12.4091
0.4917	1.2766	10.2179
0.9021	0.1783	8.4705
1.6474	0.0227	11.4161
0.5665	-0.0209	9.8422
0.9763	0.4217	8.9437
0.4648	0.5025	9.8201
-0.2339	-2.2977	10.1431
1.4471	1.3005	9.1310
0.3129	-0.1095	10.0025
-0.1454	0.1819	9.8973
0.9416	1.1097	8.7415
0.6538	0.2435	8.2097
-0.2201	-1.0816	9.7405
1.0528	0.0616	8.1966
-0.2788	0.2692	9.2614
-0.2297	0.8076	8.5375
0.9129	1.3310	8.5328
1.0313	1.7641	6.7411
1.4106	-1.5607	7.3950
0.6359	1.7420	10.9148
-0.3386	-0.2058	9.4325
-0.2656	0.1256	10.0965
1.4411	1.4052	8.7385
0.4092	0.6167	8.3988
1.5960	0.3075	9.6975
0.7065	-0.2883	9.4456
1.2072	-0.5515	9.7513
0.6796	-0.0592	10.3226
0.5103	0.8764	10.5487
1.4602	-0.1346	9.5677
0.6102	1.8209	10.5583
2.7511	0.9870	8.4155
0.3422	0.4068	10.3208
0.3505	-0.0167	9.7088
0.5025	0.6233	9.7429
0.2871	0.8255	9.2470
1.4674	-0.9278	9.3296
1.0666	1.0570	8.7362
0.5545	0.5533	9.7106
0.2895	0.4552	9.2123
0.0688	1.0325	9.4426
0.6532	0.8740	8.6853
1.3125	0.5432	9.6729
0.6042	0.5749	8.9007
-0.0700	-0.3775	9.4002
0.4098	1.4064	9.9667
0.8148	0.4050	10.8191
0.5462	-1.3513	8.3096
1.0020	0.2399	10.4548
1.4213	0.4259	10.3794
0.2506	-0.3625	9.0155
0.4068	1.2227	9.3463
0.3960	1.7312	7.9776
-0.2207	1.0445	8.4999
1.3878	0.5503	8.7840
1.7222	0.3888	9.5545
-0.9105	0.7113	9.6562
1.9513	0.0879	10.9615
-0.2339	0.5892	8.7906
1.2245	-0.7184	8.6434
0.5378	-0.5653	11.6171
0.5952	0.8967	9.4642
0.2429	-0.3003	9.9619
0.5360	0.3846	9.0388
0.3188	-0.1280	8.7613
-0.2441	0.9230	9.3296
0.2285	-0.4463	8.8845
1.2981	-0.0353	7.6881
0.8339	-0.2782	8.7792
0.3619	0.8165	9.3696
0.6580	0.6610	7.8897
0.9529	0.5168	8.3952
2.2534	1.5912	8.9994
1.2502	1.9430	9.3009
0.6096	0.0275	10.0977
-0.3129	-0.7920	12.0305
2.0088	-0.3452	9.3134
0.1478	-0.1513	12.1423
0.0425	-0.6281	8.5023
0.8883	0.1268	8.0434
1.3143	-0.5342	8.1230
-0.3242	0.1537	9.7441
-0.6287	0.7920	9.6681
1.4183	0.1131	10.2699
0.8124	0.6102	9.4319
1.3178	0.6096	9.3463
1.3501	0.6485	9.7046
-0.2136	0.3033	10.2484
0.3912	0.0814	10.9860
0.7687	-0.5497	8.2791
0.8770	-0.9733	8.2707
1.7521	0.7256	10.4632
1.3573	-0.4941	11.1696
0.8058	-0.1567	9.8147
0.6365	-1.0750	10.1730
0.3296	1.6128	10.6444
0.5342	-0.6341	8.4933
1.0690	0.5844	9.3984
0.0568	0.0000	8.0973
0.0431	0.7101	9.0508
-0.4373	0.1639	8.3216
0.8889	1.5876	9.2171
1.2030	-0.3314	8.5824
0.7250	1.0774	9.4420
1.1420	-0.1603	9.7956
0.0754	0.3625	8.8277
0.0263	-0.5880	8.2612
0.8405	-0.2584	8.3042
1.0241	-0.3272	8.9060
0.5061	0.1813	10.9268
-0.1603	-0.5617	9.8147
0.4403	0.2578	10.3094
0.6036	0.6915	11.7427
0.2824	0.5844	10.1611
0.3775	-0.1693	9.5754
0.5545	0.0891	9.0705
-0.3200	0.5791	8.4837
-0.2363	1.2431	9.7579
0.8728	0.1095	8.9383
1.1497	1.0510	8.7858
0.8100	0.0873	9.1393
0.4074	0.4774	8.9904
0.2728	0.1980	9.3003
-0.5468	0.8638	9.1262
0.5826	0.5037	10.1617
1.5230	1.2604	9.2518
2.2522	0.9314	9.2464
0.5210	0.2124	9.8679
0.2399	0.1998	10.1252
-0.3864	0.0030	9.5605
1.0546	0.4768	9.6478
1.0899	0.6586	10.0917
1.6211	-0.5103	8.8498
1.3657	0.7795	10.8101
0.5264	0.1382	8.8504
-0.5791	0.1262	8.6715
-0.2800	-0.3619	10.1886
1.0570	0.7178	8.8953
1.0187	-0.4235	8.3706
0.8076	1.0062	8.9365
1.1180	0.5952	9.4588
-0.8907	0.8925	9.8961
-0.0903	-1.3442	10.2783
1.8203	-0.0891	8.8355
0.6215	0.0383	8.5812
0.7813	0.4217	9.1340
1.1689	0.7340	11.3144
0.2536	0.1101	9.0173
0.5450	-0.3912	8.9054
0.7340	0.7071	9.3236
0.0144	0.2638	10.1282
0.7807	-0.3356	10.0965
0.1759	0.3721	10.5254
0.5228	-0.1041	9.2213
0.5174	0.0556	8.5543
0.9392	0.0544	9.8069
0.9960	0.1771	9.9020
1.1204	-0.5898	9.9990
0.1029	1.3340	9.7908
0.2859	-0.2602	9.9080
1.6935	0.9613	10.0522
0.9679	-0.1382	9.5808
1.5523	-0.1274	8.3324
0.3206	-0.5139	9.8757
0.4080	0.9595	11.5561
0.4301	-0.7771	9.6879
1.6451	-0.6808	10.2083
1.2825	1.5087	9.6562
-0.2423	0.1723	9.4959
0.7322	0.4050	9.9541
0.1699	0.1250	10.0803
0.8435	-0.6550	9.2775
1.0827	-0.0879	8.8103
1.9507	2.0028	10.3692
0.9320	-0.8381	9.8153
0.3769	-0.1711	10.2544
0.1226	-0.6784	9.7794
-0.5563	-0.7669	9.2733
1.4058	0.0802	9.1950
1.6385	1.0104	9.5575
0.2925	0.1448	9.0185
0.4887	0.7280	9.4767
0.2530	-0.6933	9.9296
1.0427	-1.3137	10.3292
-0.2315	1.0875	10.4530
1.7180	-0.0335	9.9655
0.4660	-1.1019	8.8169
0.8895	0.2602	9.3792
-0.1346	0.4780	9.7292
-0.0520	0.0437	8.1415
0.8883	0.1501	9.3367
-1.0409	0.7986	10.8185
1.0845	0.4905	10.2119
0.1651	0.5043	9.4313
1.2921	0.6030	10.7347
0.7131	0.9535	11.1547
0.9326	-0.5509	8.9324
-0.0999	2.2774	8.8534
-0.6012	-0.3470	8.6584
0.5444	0.1370	9.8781
1.4740	0.7699	9.2327
0.6903	-0.0598	9.6203
1.0786	-0.2985	10.7952
1.4273	0.8237	10.8640
0.1597	-0.6485	8.5591
0.5336	-0.6921	9.0682
0.7334	1.0875	10.5499
0.2722	1.0845	9.1280
1.1264	-0.5563	9.6233
1.1910	-0.0550	8.8570
0.9535	0.4140	12.5999
1.0648	-0.7059	10.6965
0.8752	-0.3811	9.4139
0.3996	0.3601	10.7874
1.5266	0.5515	10.7718
1.2652	-0.3188	10.9764
0.5832	0.4146	10.2364
1.0558	-0.7322	9.6221
1.1898	0.6550	9.6598
1.4106	0.3123	11.7170
1.6486	1.0122	9.3164
0.6048	-0.3033	9.0927
0.3302	0.3559	10.6851
0.8124	0.6706	8.4604
0.1639	1.0917	9.9182
0.6867	0.2955	8.9802
1.0528	0.3488	7.3788
0.4708	0.2650	9.1986
-0.4074	-0.4146	9.6634
-0.1645	1.6295	8.7607
0.3218	-0.5270	7.6402
-0.1125	-1.3842	8.9156
1.8036	1.2227	7.9471
0.2644	0.5109	11.0350
0.7095	-0.9170	11.2444
0.3260	0.1406	9.0239
1.9310	-0.7908	10.7258
0.6993	-0.8554	10.5583
0.4331	-0.6760	10.0115
0.8572	-0.7561	11.2941
0.7059	-0.4014	9.5318
1.1037	0.8219	8.5387
1.7013	0.6132	10.9609
0.1412	1.2239	9.3529
0.5216	-0.9033	8.9898
0.2841	0.3625	12.7046
0.6772	0.9505	9.7489
0.3679	-0.1496	9.7094
1.3125	0.9757	10.7401
0.7340	0.1615	9.9403
0.3398	1.0140	10.1970
-0.0586	-0.1424	10.6570
1.1755	-0.2387	8.9700
0.5480	0.6371	8.0177
1.0056	0.2154	8.9617
0.7663	0.7501	8.6554
-0.4104	0.4612	9.1740
0.0772	0.1807	9.1567
1.3166	1.6421	7.5409
0.7029	-0.7472	9.6837
1.0283	0.1848	9.7310
-0.4068	1.4638	8.1403
0.5575	-1.3681	9.7022
0.2602	0.6772	9.7902
0.9499	1.4369	8.5088
1.0660	-0.1011	9.9774
0.6580	1.5152	9.2428
0.0867	0.4205	10.5188
-0.4493	-0.2136	9.2087
1.0768	-1.1503	8.3180
1.7832	-0.8865	10.5332
0.8171	-0.4020	11.8145
1.6678	0.7621	10.0989
1.1557	0.5677	7.8939
0.6927	-1.3412	9.9906
0.3404	-0.2584	9.9014
0.7226	1.1180	12.0747
0.2937	0.8710	11.3730
-0.0179	1.2754	9.4636
1.8969	-2.2600	9.7525
2.0106	1.1509	8.0925
-0.1376	0.6688	8.1158
0.2644	1.4782	9.6376
-0.2207	0.9571	7.1216
1.8813	0.4493	9.8584
0.9398	2.4700	9.6909
0.8841	0.7394	7.3196
0.6694	0.2489	6.0024
-0.3918	2.9485	10.3441
0.8471	-1.3812	10.7479
1.6528	0.7579	8.8989
0.5180	0.0867	12.1351
2.0183	0.1412	12.8679
1.4171	0.7956	13.7844
0.4235	-0.8028	10.2131
-0.0323	1.2694	8.2959
1.0116	-0.4780	12.0095
1.4405	0.6987	10.4883
-0.4134	0.5605	9.3762
-0.2620	-0.0538	7.2323
0.9314	-0.7813	8.2450
0.1980	2.0913	9.3505
0.9356	-0.1430	9.2644
1.7001	-0.3320	11.1397
0.1998	0.9733	8.1146
0.8213	-1.1216	10.5601
-0.9745	0.6407	9.9290
0.5342	0.8500	8.8959
0.3876	-0.6981	10.9836
1.5595	-0.1908	10.2771
1.0588	0.1807	11.5824
0.9033	-0.0221	11.7026
-0.4510	0.8100	9.3870
1.5834	-0.9278	8.9706
-0.1011	0.4923	9.9906
0.2596	0.3446	7.7072
0.7495	1.2927	10.8305
0.7011	-1.0702	9.1639
1.1067	0.4648	9.3667
1.3597	-0.1585	10.0588
0.5360	-0.0826	9.0029
0.4259	0.1196	9.1896
0.4481	0.1723	10.6109
0.4409	0.6622	10.1479
0.8088	0.3667	9.2291
1.7994	-1.1414	8.7403
0.8638	0.0359	9.8847
1.4656	-0.0514	8.9509
-0.1011	0.7956	9.4049
-0.4989	0.5174	8.6596
0.8010	0.4929	9.3104
0.6078	0.8608	9.7812
1.5493	0.2429	9.9020
0.6706	0.6909	10.4650
0.2883	0.7693	10.1988
0.3906	-0.4977	10.5355
0.9505	0.2829	8.5561
1.2861	0.6921	9.3517
0.9667	-0.3027	10.0097
0.1753	0.9894	10.3423
0.7454	-0.7771	10.2155
0.6353	0.9595	9.8069
0.2040	0.0598	11.8540
0.6861	0.9356	10.2789
1.9382	0.2931	8.2851
0.3499	0.3828	8.6620
-0.4917	0.7358	8.1260
1.2736	0.0203	8.7439
0.5384	0.6825	8.1421
0.2070	-1.0157	9.2446
1.0935	0.4313	9.9774
-0.5157	0.6209	10.0055
0.8979	-0.0431	9.9284
1.2921	1.4584	8.8061
-0.0843	-0.1113	10.7964
1.8999	-1.0247	9.5623
0.7047	1.1695	9.9457
0.6945	0.5139	10.0348
0.4977	-0.4714	10.6133
0.8997	1.5410	10.0265
1.1019	0.0221	11.2953
0.9410	-0.5103	8.5986
0.9882	1.5009	9.7794
0.8608	-0.4152	10.7090
0.9093	1.0421	10.0779
-0.2800	0.9272	10.4662
0.4235	-0.0479	9.9272
0.3326	0.8094	9.1932
0.5826	-0.0556	8.5758
0.1974	-0.6353	10.8998
0.4373	0.8698	8.4652
1.9406	0.0191	9.5485
0.7830	0.5133	10.3944
0.2943	-0.4720	8.3706
0.4373	0.7980	9.5503
0.3003	-0.2471	10.3483
1.6660	-0.2806	8.5238
0.6592	0.7549	10.8789
0.0676	-0.7621	8.6476
-0.7334	0.2225	8.9545
1.0008	0.6293	9.9272
1.2048	0.2524	9.6131
0.3236	0.6897	10.3866
1.6331	-0.0227	10.5756
-0.5653	0.2148	7.6995
0.0730	0.3631	9.1280
-1.0594	1.0672	10.4153
1.1581	0.1101	7.8317
1.2203	0.9673	9.7076
1.3190	-0.2752	10.9968
0.1753	0.2399	9.2482
0.2417	0.6209	9.3661
0.6915	-1.1168	9.7094
0.7394	-0.2357	9.1848
1.5571	0.3511	12.1208
1.5212	0.0754	11.9898
0.7974	0.2901	10.4973
0.3625	0.0072	10.6797
0.5073	-0.5856	8.1954
0.7472	0.9487	9.4492
0.1992	0.6173	11.9030
-0.7083	-0.3380	7.0067
0.3344	0.9332	10.4572
0.1077	0.6987	11.6416
0.9571	-0.0748	7.6875
1.4614	1.0995	8.1170
0.2291	0.3368	10.6133
-0.9697	-0.3996	9.1130
0.6969	1.2754	10.5966
0.8680	-1.2335	10.4979
1.1838	0.7705	9.1148
1.3633	0.5539	11.2480
0.4229	-0.9631	11.4747
0.4487	0.5850	9.6699
0.1597	-0.4732	10.6809
-0.2835	0.7310	9.1579
1.7970	0.3147	9.7357
0.6814	0.8728	8.8875
0.6431	0.8800	9.4707
0.4152	0.3236	8.7415
0.0156	1.2138	10.4315
0.4098	-0.2195	8.9730
1.1234	1.4620	8.5387
0.2285	-0.3033	10.4111
0.8022	0.4810	8.5597
0.8477	1.0271	10.1353
1.4453	0.3141	11.1487
-0.3188	0.7519	10.0510
0.9290	-0.0700	10.1593
0.1705	-0.0060	8.4370
0.6682	1.0217	9.9960
1.0283	1.3131	9.2973
0.5515	-0.7436	9.5497
1.3866	1.2796	10.0073
0.6108	1.0654	10.7401
0.4080	-0.5701	8.2767
0.6508	1.1025	8.5770
1.1366	-0.6802	9.0179
-0.0843	-0.6132	10.2508
0.9081	0.0144	10.3112
0.5677	0.3230	11.9981
-0.1759	0.4223	10.4632
0.5426	-0.0012	9.6203
0.9027	-0.3176	10.7246
1.1067	0.7340	9.1178
1.3561	-0.5755	9.9954
0.1507	0.8213	9.7962
1.1641	0.3200	8.2893
0.7065	0.0826	9.6006
0.7460	0.1035	9.5724
1.4010	1.3226	8.9635
0.8572	0.2339	9.3308
0.8453	-0.1095	9.9619
-0.0975	0.6413	9.6550
0.6987	0.2758	11.0512
1.2102	-0.0604	8.9742
1.3154	-0.3236	10.6570
0.8441	0.8883	9.8937
0.3206	0.5521	9.8033
0.8321	0.6173	8.8947
0.6981	-0.5204	8.9126
0.0562	-0.4642	9.1531
1.1832	0.3176	8.9455
0.8064	-0.4463	9.8386
0.4648	0.4851	7.8203
0.9799	0.3577	9.9523
0.9631	0.3212	7.9968
1.3753	-0.3009	11.0434
0.2590	0.8554	10.6007
0.0760	-0.4863	9.8350
0.3410	-0.2028	9.6819
2.0650	0.2010	8.0022
0.9434	0.6185	8.7726
0.8734	0.5462	9.7411
0.1274	1.0175	9.5413
-1.0421	0.2345	8.4030
1.5069	0.0018	9.3684
0.9499	-0.4594	9.9266
0.6628	0.1478	9.8087
0.9793	-0.0963	9.8560
0.7484	0.1370	10.2634
1.0385	0.1663	10.0953
0.4941	0.7370	10.3848
1.2084	0.1119	9.0640
0.3200	-0.4313	9.3499
0.2429	-0.1143	9.5497
0.8512	-0.7735	9.7196
-0.0275	1.4088	10.1521
0.9709	0.1005	8.7702
0.7824	0.3290	8.1421
0.9529	0.1280	8.0973
0.1531	0.9703	7.4757
0.2100	0.1011	7.0995
1.4195	0.7149	9.4809
0.8812	0.9607	8.2199
0.3428	-0.7011	9.2895
0.4953	0.7047	9.8997
0.5145	-0.2453	8.8713
0.7507	1.1952	9.7728
0.8237	0.9206	10.3190
0.7484	-0.0514	9.6975
1.2682	-0.3769	11.6859
1.0516	-0.4941	9.5988
-0.4708	0.9721	10.8442
0.4762	0.3326	8.7834
0.2351	0.1041	9.9541
1.5099	-0.7819	8.6440
0.6562	1.2233	10.2430
-0.5168	0.8512	10.9710
0.3918	1.4919	10.5649
2.0476	-1.6863	12.7375
0.7041	-0.0084	10.8424
1.5481	-1.1922	13.9561
1.2879	0.5785	8.5800
0.3799	-0.6485	11.9623
0.8967	0.0377	9.9200
0.4816	0.9093	7.3722
1.1569	0.6760	6.3679
1.0032	1.8347	8.3689
-0.0736	-1.2808	7.4967
-0.1747	1.9549	8.9874
-0.2148	-2.7428	12.0651
1.7294	-1.1366	9.8973
2.2887	-0.4451	13.6576
0.6006	-1.3268	9.9942
0.7723	0.1047	10.9932
0.8100	-0.7938	9.8350
1.0965	0.2674	10.1910
0.8010	0.4504	8.8301
0.4229	-0.5372	9.1591
-0.6485	-0.1298	6.6365
0.0060	-0.0586	9.6113
-0.1472	1.4841	9.9140
1.7318	-1.4022	9.4767
1.7569	1.6809	11.9162
0.8159	-0.8919	8.2863
-0.2267	1.3519	8.9730
-0.0502	-0.0802	11.6865
0.8806	2.4754	10.9692
-0.1370	-0.0221	9.0747
1.2736	-0.5312	8.2582
0.5533	0.9290	6.0036
0.7759	1.1330	10.7048
-0.2596	1.8096	11.6524
-0.1848	0.1771	10.0348
2.2451	-0.3434	9.0424
0.2082	0.7292	8.6189
1.2305	-0.7053	10.1264
-0.4923	1.1043	10.5445
0.7501	-0.0849	9.1220
0.4654	0.1322	9.5102
1.3890	-0.0843	9.2709
0.6407	0.7741	10.2580
0.1729	0.2297	7.0229
1.2413	-0.0437	8.6404
0.2829	1.1832	9.4911
1.1444	-0.4804	9.1393
1.2329	0.6401	10.2526
0.1478	-1.7462	9.1860
0.2614	0.9212	10.3752
-0.1615	0.0855	11.3240
1.7545	0.4768	10.1150
0.9727	0.1896	8.2713
0.9499	0.8853	8.3934
-0.1950	0.6102	8.3545
0.7238	-0.6628	10.2239
0.4588	0.5432	9.3565
0.9882	-0.6084	9.7423
1.2796	-0.6514	9.6544
0.1932	-0.9470	10.1832
0.1143	0.7699	11.2390
-0.2423	-0.2435	9.7597
1.7503	0.3715	9.0502
1.2598	0.8662	11.2013
0.6383	0.6084	9.5425
-0.5073	0.2728	9.9876
-0.0832	-0.7495	8.0709
1.1725	0.2620	7.3459
0.6873	0.2136	9.3649
1.4698	1.0570	9.2721
-0.1836	0.3176	10.4033
0.5216	0.7346	9.1848
1.6576	-0.4798	10.1240
1.0630	0.3200	9.2590
0.8728	-0.1017	9.8081
1.1180	-0.4666	9.5557
-0.4098	0.6861	9.8763
0.8201	-0.6191	9.9038
1.2754	1.3663	9.1824
1.8006	-0.1950	9.9912
0.9194	0.4193	9.3015
-0.2465	0.8602	9.4313
-0.2171	0.0586	9.6490
0.6712	0.7938	8.2923
1.1468	-0.4816	8.1487
1.7204	0.6999	10.0875
0.7932	1.3035	9.5108
-0.3709	0.4140	8.4041
0.7370	1.3137	8.6446
1.1874	0.8644	9.4462
0.7902	-0.9763	9.2261
1.2377	0.5486	10.8376
0.8231	-0.3601	10.2215
-0.1220	0.5952	10.8041
0.2901	0.0263	10.5332
0.9846	0.8800	9.1202
1.8676	-0.6766	10.4967
0.0317	1.0552	10.7198
0.0706	0.2333	8.5968
0.6042	1.4656	10.4548
0.7699	-0.4827	8.2833
0.6317	1.0427	8.5693
0.0634	1.2126	10.1766
0.4229	-0.4002	8.6745
0.6173	1.9507	10.0755
0.5450	-0.0652	10.5140
0.5635	0.0024	9.0460
1.1779	0.8536	10.9178
1.1773	0.2255	10.5559
0.1017	0.3057	10.3435
1.0163	1.2813	11.0883
0.6802	1.1533	9.9092
1.1785	0.6664	9.1639
0.1902	0.4756	10.1294
0.0736	-0.4253	9.7609
0.7280	0.6018	9.0705
1.1013	-0.4463	10.1234
0.5761	0.3087	10.5768
2.1936	0.9541	10.4422
0.5091	0.2471	10.8023
0.7023	-0.3858	10.6719
-0.6814	-0.4965	11.3312
1.0696	-0.2004	10.3058
1.1312	-0.4935	10.0965
0.9398	0.2835	9.6125
0.8417	0.1484	9.2016
0.8387	1.1432	8.4795
0.9422	0.4241	8.5716
-0.8100	0.6389	9.7322
1.2664	0.2441	9.9314
0.3649	1.1043	9.5150
0.5743	-1.0265	7.7730
0.5300	1.3364	12.1627
0.9864	1.3807	11.1637
1.9370	-0.5521	8.7344
1.2640	0.4104	11.7158
0.8770	1.4506	10.0977
-0.2333	-0.7813	9.9565
1.1647	-0.6066	8.3449
1.3328	0.1944	8.5824
1.3340	0.9350	10.7581
0.7932	1.2999	10.5008
0.6473	-0.1029	8.7164
-0.8536	1.5392	10.5559
0.5785	0.7926	10.6336
1.3525	0.3314	8.2989
2.9210	-0.9625	11.9449
1.2167	-0.1531	10.2293
-1.0421	-0.7531	10.1527
0.6987	0.9739	7.5236
1.2568	1.9298	8.0542
0.9464	-0.3051	9.5330
1.0600	2.5627	10.2233
1.2209	-0.5976	7.0456
-0.4624	0.9308	8.4424
0.6532	0.5204	10.9094
0.9954	-0.1460	9.0604
0.3751	0.3254	14.3078
0.9822	-2.2325	10.0492
0.0556	0.2112	8.5788
1.5727	-0.7693	8.7457
1.1683	1.6283	12.0807
0.9356	-0.3458	10.5649
0.6520	-0.4822	8.5112
0.7310	0.8692	8.7320
0.3057	0.7854	9.8889
0.1244	0.5372	8.4783
1.3298	-0.4606	9.1549
1.1485	-0.2201	8.7098
1.3454	0.5162	9.5784
-0.1872	0.7956	9.7728
-0.3697	0.0108	11.4418
1.5535	1.1785	10.8783
0.3823	0.6084	8.3706
2.0698	-1.2885	9.1782
-0.2931	-0.2489	8.3360
0.1944	0.5521	9.3559
-0.3954	-0.1400	7.2915
1.3478	0.6359	6.8662
0.5354	0.5240	9.3003
1.9190	0.7938	7.3848
1.3669	1.0475	6.7250
-0.0658	0.4582	8.5884
-0.1244	1.0941	9.6514
1.1623	0.0550	8.1667
1.4584	-0.3033	10.1132
0.7956	1.9783	10.9974
0.2746	-0.4726	8.4287
1.6217	-0.1699	8.7990
1.6720	0.5683	10.1066
0.5665	0.5611	11.4675
1.6774	-1.0271	11.4789
0.9152	0.9117	8.9401
0.6287	-0.1573	9.7944
0.5593	0.6825	10.1509
1.1408	0.2255	8.4323
2.4993	0.1549	8.7625
0.1902	2.6536	11.3563
-0.2734	-0.4929	7.8185
0.9649	-0.3733	10.5804
1.0038	1.3358	8.2085
0.1789	-0.3799	8.5669
1.4118	1.1874	10.2771
0.4684	-0.4481	9.9846
0.5264	1.4082	8.8163
-0.3248	-0.4660	10.6235
0.9649	0.1543	9.9858
0.9380	0.1765	10.9507
0.0832	0.7555	11.1864
0.9164	-0.2453	9.8129
1.3848	0.0586	10.2634
0.9817	0.7801	9.9224
-0.6825	0.6090	8.1033
0.4822	1.1438	8.6721
-1.1354	1.3035	8.3180
1.0235	0.8578	9.3206
0.3326	1.6367	11.5812
1.8347	-0.3727	7.7790
1.0002	-0.0221	8.9545
0.2219	0.8901	9.6586
0.5509	0.6138	9.5706
-0.2345	-0.6173	9.7334
0.7992	0.1567	9.2662
-0.3392	0.4169	9.2010
2.1140	0.0802	8.6153
0.7304	0.3715	8.2767
0.5157	0.8955	11.3234
0.5904	0.4427	8.2654
0.4331	0.3434	8.8618
0.3164	0.4690	8.3132
0.6580	0.5025	9.5001
0.3218	-0.3613	9.5210
1.2359	0.5216	9.2967
-0.1131	0.4277	10.2287
1.1336	1.2718	9.2177
1.9944	0.7047	11.2743
0.6568	0.7639	10.4446
0.2614	-1.2999	9.4115
0.5635	-0.6664	9.7196
1.9238	0.5844	8.6207
-0.7789	0.3876	10.3776
0.3272	-0.0748	9.0173
0.4810	-0.0772	9.6017
-0.0951	0.7561	9.4600
1.5673	-0.5641	9.4205
0.3571	1.2526	8.4694
2.0722	-0.4953	9.4097
-0.0066	0.4259	11.3503
-0.0042	0.6132	9.4432
0.7029	-0.8285	10.5409
0.1819	0.2967	11.7559
0.9757	-0.2590	11.1553
0.7645	0.0191	10.8239
1.0708	-0.5432	9.7046
0.2387	0.6945	10.0378
0.4391	0.0251	9.2841
1.6457	1.2993	8.6159
0.5414	0.0491	8.7212
0.7669	-0.6760	10.0301
-0.0030	1.4357	10.5248
0.0078	-0.6108	10.2622
-0.1364	0.4469	9.9637
0.7741	0.7813	10.6737
1.3669	-0.2447	9.8853
0.8710	0.6562	10.0905
0.8752	0.2165	10.9621
0.5892	1.1252	9.4803
1.0983	-0.9230	9.5114
-1.0851	0.6185	8.5220
0.4564	-1.1121	9.0622
0.9918	1.9525	10.0229
0.1161	0.6885	9.2368
1.4327	0.2495	9.2494
1.1468	-0.1651	8.2492
0.8728	1.5996	8.3246
0.0951	0.1059	8.0488
0.0760	0.7777	8.9970
1.1252	0.2219	10.2311
0.2046	0.3135	8.9312
0.7029	-0.0030	9.6382
0.5354	0.7196	9.7459
0.4247	-0.5384	9.2686
-0.7274	0.9296	8.5914
1.5475	1.6510	8.7092
0.9338	-0.0987	9.1818
0.7005	0.3589	10.6719
0.8698	0.1161	8.0476
0.7424	-0.1394	9.8560
0.5174	-0.1537	9.7788
0.0090	0.4062	9.4372
0.6030	-0.2590	9.7465
0.5192	-0.9398	9.5084
-0.5049	1.3430	9.5102
1.1623	-0.8818	8.1218
1.5517	1.0546	9.7202
0.7466	-0.6167	9.5150
0.7801	0.0610	9.8949
0.3254	0.6820	8.3880
-0.2668	0.4965	9.2506
1.0720	0.2740	10.1898
-0.0431	0.3607	11.5597
1.4333	-1.5721	10.9848
0.7974	-0.3488	11.2683
0.3170	0.5557	11.4221
0.8321	0.3685	9.1609
1.4853	0.4636	9.0927
0.4313	-0.7735	9.4313
1.1061	0.2429	9.9152
0.5593	0.2608	10.7150
0.8835	-0.8261	9.9451
0.3422	1.1001	10.0713
1.4411	1.1372	10.7545
0.8524	0.4008	10.9052
-0.2716	0.4128	12.8691
1.9747	-2.4293	9.6747
1.4112	0.7938	8.1954
0.8961	-0.1525	8.7206
-0.2435	1.7264	9.3930
-0.0036	0.2764	6.9756
0.9858	1.3047	9.8829
-0.9523	-0.1101	8.2528
1.0337	-0.5928	7.6379
1.7485	0.5952	10.2753
-0.6939	0.9559	10.5708
-0.1627	-0.4660	10.4255
0.8883	-0.4498	8.0093
1.6983	0.6748	10.6253
0.8488	-0.3757	8.3144
1.2335	0.0084	9.9900
0.2100	-0.0126	9.4516
-0.3583	0.0957	10.5678
-0.0156	0.7824	10.5529
1.3394	-0.3840	8.9940
1.0552	1.5978	10.5924
0.3823	-0.5162	9.4576
1.0929	0.4768	8.6153
0.8560	-0.2584	9.5186
0.4827	0.4516	9.7435
0.8901	-0.5103	10.4614
0.7519	1.4734	10.7222
-0.0341	-0.4307	10.9417
-0.2279	0.5252	9.0191
1.4291	0.5635	8.4544
1.5368	-0.7160	9.6687
0.5390	0.8494	10.3405
0.4104	0.5563	7.6032
-0.4014	-0.6257	8.3557
0.1675	0.2165	8.5842
1.1803	-0.5785	9.2147
1.3292	0.6473	9.8608
1.2138	-0.2961	9.1393
-0.0586	0.7741	9.5916
-0.0144	-1.0995	9.7184
1.2467	0.7364	11.4963
1.2018	0.6036	10.7796
0.6455	0.9990	8.1918
1.1809	-0.4367	9.8021
0.2818	1.7641	9.0065
0.0144	0.3697	9.6795
0.3045	0.6873	9.6957
-0.1095	1.1677	9.0813
1.5978	0.4983	9.5216
0.1077	0.9721	11.8677
1.0816	-1.6193	7.9681
1.4405	0.4104	8.9683
1.1444	0.7131	10.9274
-0.3015	-0.6377	10.4787
0.7256	0.3374	10.4614
-0.3709	0.7920	9.6490
0.1968	-0.5539	7.8963
1.1737	1.7282	10.4069
1.2849	1.4136	6.2345
0.8022	-0.1890	7.9088
0.9398	-0.5677	9.2398
-0.1872	0.9655	8.9401
1.0510	-0.7316	10.2113
0.6150	0.6102	10.3345
-0.2070	0.2094	9.5802
1.4949	-0.5348	8.1356
1.9501	0.8309	9.6993
0.2088	0.9529	11.0973
0.8578	0.2124	9.3146
1.0833	-0.2865	8.1469
-0.0790	1.5535	10.1694
0.9733	0.7071	9.8877
0.4134	-0.5192	9.8482
1.2215	0.1950	10.2556
0.1735	0.6784	9.4809
0.7723	1.3938	9.6215
0.8177	-0.0323	11.0434
0.7777	1.3932	10.6624
0.5115	0.2806	11.0267
0.6784	-0.0502	9.1812
-0.2273	-1.3238	9.9613
0.6341	-0.8901	7.8753
0.9505	1.9747	8.5794
0.6694	0.2740	5.8414
-0.6006	1.9639	9.7944
1.6457	-0.3141	10.2436
0.8333	0.3775	9.8608
1.2263	-0.6682	10.9417
1.1803	0.3278	9.6592
0.5503	0.2189	9.3146
1.5111	-0.9499	7.3699
0.8411	1.1683	9.6520
1.0636	0.7711	9.3559
0.6287	1.5314	10.1904
0.4959	-0.7107	8.7469
0.9093	0.7322	11.7672
-0.0808	0.0676	9.3326
1.7844	-2.1260	9.5407
1.8981	1.4494	8.1421
0.8106	0.1585	9.8015
-0.8895	0.6395	9.0358
0.2435	0.4379	9.1369
-0.2716	0.5838	10.8185
1.2066	0.9200	10.0031
0.6138	0.4181	9.1896
0.8560	-0.4768	8.8761
0.0802	1.1282	9.2506
1.1420	-0.2453	9.1746
0.9996	-0.0317	9.9996
0.9218	0.6485	10.1252
0.5210	1.2772	11.4334
0.4558	-0.1454	9.4899
-0.2309	-0.6299	9.6681
1.3095	0.3846	9.4995
0.0485	0.3260	7.6660
0.6574	-0.2967	8.9922
-0.2213	0.8333	9.8476
1.1127	0.0933	10.2323
0.6126	-0.1597	10.6959
1.6157	0.0497	9.4899
1.3699	-0.3051	9.8458
2.1200	0.4929	9.0682
-1.0672	-0.5180	10.1982
0.2279	1.6738	9.0137
0.4062	0.6167	9.0000
0.8997	0.7047	8.7266
1.1288	0.0317	11.0129
0.0999	1.2616	8.7990
1.3489	-1.1539	8.2414
0.0120	0.9105	9.9248
1.2694	-0.6114	11.4191
0.6574	1.1545	12.5934
2.0488	0.0640	9.7902
-0.1926	0.3888	11.2151
0.9733	0.6167	8.2767
0.8542	1.9633	8.1164
0.0389	-0.9212	5.7673
0.2746	2.0441	11.3078
-0.0544	1.1300	7.6911
0.1238	-1.2556	11.6984
1.1192	0.2459	9.7429
0.7842	-0.3314	10.8065
1.2209	-0.6999	11.0464
1.0391	-0.0479	9.5234
-1.7013	1.3430	8.9497
0.1896	-1.2443	8.7708
0.5934	2.8696	5.4460
1.6026	1.1336	9.0329
0.7017	2.2744	9.3080
0.5779	-0.7328	10.5571
1.4554	-0.3362	8.9569
1.4758	-1.2634	7.8209
0.4253	0.8471	9.5856
0.0909	-0.9583	7.5134
0.5210	0.9541	11.2935
-0.1346	-1.6343	10.0097
0.4672	0.3284	11.7403
0.9158	0.1298	7.4285
0.5067	3.4821	10.4297
0.0371	-0.1615	10.4482
1.2108	-0.6993	10.4482
0.9452	2.0010	6.6197
0.7663	-0.8512	9.8225
-1.0385	-0.5264	9.5204
0.5940	0.3075	10.6665
-0.7059	0.7466	10.8897
0.5378	-0.1926	9.9320
-0.1196	0.4080	10.2071
2.3635	-0.4457	10.2269
0.2345	1.2802	7.6121
0.9164	0.3141	8.7224
0.7220	0.7238	8.8055
0.1412	-0.3966	7.7383
0.3302	1.0995	8.7673
0.0359	0.5838	7.8879
0.3482	0.4582	10.1258
1.6522	0.3212	8.2977
-0.7322	1.1964	8.7906
1.7402	-0.9499	8.0506
0.4020	0.9541	8.9970
0.3583	0.2883	8.5322
0.1902	1.3759	7.9740
1.1641	-0.0544	9.3613
0.3470	0.7316	14.0452
1.4692	0.1478	10.9872
-0.0616	-0.1854	13.3453
-0.1256	-2.3791	10.3674
0.2572	-0.2411	7.3423
-0.1095	-0.8309	8.3754
0.0646	0.6473	7.9280
1.0606	0.1920	8.0051
0.2303	1.2855	11.9635
1.9095	-0.5049	10.9220
0.7759	0.1400	8.8085
0.5982	1.2676	9.1836
0.7998	-0.2524	10.4141
0.9326	0.1214	12.0011
2.8026	-0.3494	9.4061
0.0820	1.4961	11.5549
0.9224	-0.1753	9.4612
1.3364	-1.3220	7.6666
-0.2004	2.6650	8.1511
0.6245	1.5978	11.3736
0.8483	-0.5456	11.4376
1.9669	0.7944	9.5186
-1.4028	0.6760	8.7367
0.6120	-3.3984	8.0357
1.5589	2.9360	6.2428
0.3691	-1.3125	10.3423
0.5013	-0.0102	11.1481
0.0634	0.9960	9.3379
1.2760	0.2213	8.3641
0.8620	1.7653	7.5098
0.3769	-0.9679	9.9972
1.3101	1.8173	10.4973
-0.8883	-0.6574	10.0289
2.1123	-0.9362	8.1128
0.8728	0.6197	6.7932
0.5270	-1.3244	7.3058
0.9015	0.5414	12.6490
-0.1232	1.5775	9.7716
1.9759	-0.3057	9.0987
2.1218	2.2253	11.2791
0.8393	-0.5127	12.3511
1.4339	0.4816	13.8239
0.9368	0.3069	11.2731
-0.2309	0.3153	9.1698
0.7759	-0.1950	10.4644
1.3400	0.2991	10.3064
0.7418	-1.2957	9.9146
0.3739	2.3198	8.4765
-0.8494	-0.9326	8.9964
0.8542	0.7131	11.7672
2.7673	1.2383	11.2163
0.0269	-0.0694	10.1120
1.8317	-0.8835	8.1541
0.6401	-0.3200	8.2061
0.3643	1.8018	11.3838
1.8084	-0.8877	10.4512
1.2012	-0.2255	10.9333
1.0475	0.3344	12.1459
-0.0538	0.3547	9.5569
-1.4907	0.1166	12.1716
1.8263	-1.9962	8.6482
0.4062	1.4153	10.9244
1.2102	-1.7479	9.2362
-0.6939	2.2205	6.4606
1.8030	0.1023	5.3575
0.1286	2.3874	11.4029
0.1256	1.8933	9.5688
1.2736	0.0425	11.7254
1.2670	1.4393	8.6763
1.2120	-0.4080	8.4622
1.4435	-0.0024	9.7046
0.5749	-1.2263	8.5890
0.8740	0.5491	11.5268
-0.5270	-0.1747	9.0801
0.9583	0.1717	11.6237
0.3834	-1.4399	9.3236
1.3579	-0.7202	9.8859
2.3204	-0.6808	6.0179
1.5541	1.2676	8.1332
0.1825	1.4865	8.0608
-0.5779	-0.1854	10.0193
0.6694	1.6409	10.5637
0.9715	0.3906	9.5300
1.7139	0.5886	12.3888
1.1480	1.1007	11.4646
1.4650	-1.6498	11.2330
0.6724	1.4028	9.8267
0.4163	-0.7537	8.3868
-0.8040	1.9896	10.3184
1.6295	-0.4899	11.5411
0.2076	-0.8094	12.0945
2.1362	0.8596	10.4446
0.1268	-1.0833	11.8366
2.1260	0.5755	10.2029
0.1077	0.0598	9.6161
-0.7226	0.5318	11.0901
0.7525	-0.0329	9.2291
1.0092	0.1029	7.3399
1.6881	0.6090	8.4359
0.5737	-0.7041	9.8739
0.6963	0.3188	14.0637
1.8425	-0.7711	9.9391
0.4199	1.2957	11.8659
0.8321	0.0383	11.3222
0.1430	-0.0826	8.5286
-0.2883	0.9416	10.2855
0.6185	-0.4086	8.4604
0.2776	0.0036	11.1768
2.5304	0.5139	9.3547
-0.3882	-1.0798	11.0793
0.7256	1.2915	11.8857
0.1208	0.8985	8.3210
0.0413	-1.5781	10.1294
-0.4875	-1.5290	8.8588
-1.7521	1.7599	5.1960
1.2700	-1.2365	3.5898
2.4496	2.4012	8.7936
0.4720	0.4624	8.9126
0.9487	-0.3284	10.3375
-0.3643	0.6191	8.4113
-1.3663	-0.1836	7.5649
0.5438	2.0584	8.9437
0.1065	-0.5533	9.3888
2.2229	0.7029	10.1024
-0.6209	0.0126	9.0065
0.6718	-0.8584	9.0610
1.6145	1.2526	9.5682
-0.4163	-0.4092	10.4392
1.6361	-0.4367	10.2933
-0.0622	2.3796	10.3064
-0.0598	-1.3400	9.0412
1.5709	1.0744	7.1665
2.9629	-0.1633	8.6434
2.0925	0.7274	10.6911
1.3346	1.4195	7.4285
-0.1507	-0.0060	12.8141
-0.5192	0.4187	9.4695
0.8309	0.8447	8.8474
1.0600	-1.5272	10.4446
1.9561	-1.3807	9.4187
-0.2512	0.5695	8.5029
1.3483	-1.3651	9.8949
-0.3123	-0.6425	11.1738
0.3021	0.7920	11.5692
2.3952	0.5797	10.4841
-1.3561	0.8835	6.1065
0.7501	-1.9842	10.5230
0.7077	-2.0165	10.2071
0.0305	2.6094	10.7485
-0.2782	-0.1178	11.6195
1.7922	-0.6203	10.3274
0.4606	1.6062	10.8711
0.6508	-0.4098	11.1684
1.6887	1.9795	12.7866
1.1025	-0.0736	8.3389
1.4847	-0.6030	13.0653
-0.1490	3.1477	10.4536
-0.2165	0.5426	8.5208
0.5916	-0.1914	9.9481
0.9410	2.1565	8.5549
2.4801	-0.6108	10.4362
1.0648	2.2953	8.8235
0.7137	1.0032	9.3332
2.4347	0.4092	10.6707
0.6963	1.5763	12.2009
1.1115	-1.2987	11.6165
0.5139	2.6453	10.2538
-1.6253	0.7878	8.8923
1.4279	-0.3918	8.4053
2.0704	0.3775	6.8105
1.8652	-0.2177	10.3902
0.0772	0.5061	12.3942
1.6953	-0.0203	7.2000
0.6951	2.1948	12.0849
0.4750	0.2710	9.0382
0.3159	1.6648	12.5814
1.3830	-0.9374	9.5551
0.3942	1.4417	6.3110
1.1820	0.0150	10.2909
0.9517	1.6917	7.9962
1.9830	0.1460	8.3114
0.1735	2.2492	8.2378
1.5816	0.2483	7.3011
0.1609	0.4062	12.8823
0.6825	2.3820	8.9736
-1.5296	0.0981	8.3964
2.3240	-1.1515	8.0022
2.0267	1.6929	8.2032
2.4760	-1.0498	11.7385
-0.3823	2.9892	10.3932
-0.2363	-0.5497	7.0504
-0.0526	0.2895	9.8159
1.1545	0.1316	8.0237
1.6409	-0.1220	11.1170
1.9872	2.0692	9.5748
-0.7232	0.1364	10.3531
0.6084	-0.4062	8.4478
-1.9956	-1.8879	9.1250
1.1539	-2.1661	10.5828
1.1234	0.8764	8.3210
0.3248	0.3278	6.9098
1.0056	0.4152	7.5403
2.9976	1.5260	11.2767
0.8638	1.0839	11.1457
-0.0120	-0.0048	12.0370
0.5599	0.8901	9.6759
0.6867	0.4989	8.3072
1.8957	-1.3926	8.2426
1.3304	1.6343	12.5036
0.8052	0.7962	11.7379
0.7860	0.9996	8.6410
-0.6449	1.2257	7.9549
0.7908	-1.3920	10.2957
1.0205	1.9364	11.4394
0.5988	-1.1288	11.5782
0.3386	-0.2620	10.3537
1.8245	-0.0772	8.3515
1.4411	-0.0197	8.3671
1.5769	0.5121	10.5942
0.1962	1.1133	7.9669
-0.3164	-0.8004	8.2546
2.7105	0.2710	10.5092
1.7192	3.8626	11.0111
0.3697	-0.7777	10.6348
1.1850	-0.2219	6.5216
1.0636	-2.6692	10.1234
2.8809	-0.0993	14.1475
1.0786	-2.1140	10.4207
0.4768	-0.3637	10.2263
0.7543	-1.5870	12.3212
-1.2508	0.8512	13.5337
3.1453	-2.3641	6.7693
1.4764	2.0064	12.2913
0.7974	2.4730	11.7995
1.3513	-0.3105	9.4654
-0.3434	1.2772	8.5675
0.5462	0.8267	10.1012
0.2674	-1.1115	8.9108
0.3440	-0.2614	8.9659
2.0961	-0.3505	12.0023
-0.4451	1.0726	9.3469
0.2303	0.4630	10.0241
1.2628	0.3984	12.2512
0.7944	0.7597	11.1792
0.2249	-1.8574	7.1611
1.1282	-0.6814	7.5679
1.7533	-1.0116	9.2997
1.0582	1.2849	12.4091
0.5521	-0.1131	10.5391
-0.9876	0.0455	11.7643
1.2066	0.6012	9.0167
-0.5910	0.6239	7.5786
1.6469	1.4195	9.6233
0.2040	-1.4764	10.3788
1.0247	-0.5049	10.0809
0.3063	0.4576	8.5693
1.4225	0.6867	6.4630
0.8770	1.9041	10.8508
-0.2841	0.2088	11.9557
1.9256	-0.4457	7.9058
1.5158	2.0327	9.2829
-0.0754	1.9280	9.9403
0.3452	0.5390	8.3066
1.2963	-0.8052	11.6518
0.6855	-1.8431	10.9202
2.0207	-0.8734	5.2887
0.6425	0.7669	12.5527
0.8285	-0.6508	11.9718
3.3463	1.9065	14.9054
-1.3232	2.3306	12.1549
1.0337	-2.4658	3.9260
1.7779	-1.3699	10.5188
1.4806	-0.2381	7.0935
1.4195	1.7168	11.6027
-0.8028	0.5916	6.4947
1.3274	-0.0574	10.3004
2.1475	0.3709	13.0259
-0.1519	1.7462	13.7276
0.2776	-2.3264	9.5922
1.2921	0.9846	11.9078
1.4883	-4.2879	12.3248
3.7262	1.5505	10.0337
-0.4959	-0.1573	10.1012
1.1180	0.1890	7.5966
0.6538	0.5527	8.2552
-0.2686	0.2189	9.6921
1.6492	1.4142	10.6540
-1.2377	0.1400	10.4506
2.1428	-2.1685	14.4059
0.4720	3.6478	8.6668
1.5164	-0.0323	7.0169
1.9483	2.5364	8.4365
-0.6227	0.7268	10.9046
1.2682	-0.5031	10.1820
-0.7693	0.4307	9.7381
-0.3224	0.1101	12.8703
3.3667	-1.8478	10.2777
-0.8859	-0.0921	9.2267
1.6684	-2.3743	15.3439
-0.7412	1.2132	10.7144
-0.0407	-1.9280	10.7581
2.9174	-0.0999	8.7254
-0.0281	1.0433	11.3174
4.3310	-1.1444	8.8217
-0.5701	1.5027	15.0125
0.8626	5.8044	10.7359
0.2686	1.7037	8.1128
1.6140	-0.3087	11.1104
2.5220	0.2381	10.2346
1.6391	-1.0947	7.1575
1.4405	1.2694	7.6175
-2.6895	0.5964	8.3096
0.8004	-3.0335	4.0205
1.1791	5.5998	8.1948
-1.4076	-0.1902	8.7870
2.0130	-1.4806	9.2721
-0.3894	1.7707	12.9625
0.9559	-1.7647	9.7603
-0.1537	1.8287	11.6243
1.0690	-3.5755	11.8636
0.4355	2.7721	5.2127
1.5529	-0.3721	14.7876
2.9946	2.8786	9.1346
1.5846	-1.5870	9.1663
-1.0475	2.7984	10.8957
-0.1262	0.6150	8.2887
-1.2796	0.0377	8.2881
2.0955	0.7854	5.6542
0.0855	-1.4716	7.3226
2.9575	3.7543	8.4083
-1.0947	-0.4690	6.9936
0.6622	1.2766	5.6482
1.7414	3.2052	7.6881
0.1340	-0.3589	6.8177
2.7350	2.8923	7.6725
-0.5258	1.5655	7.5487
1.9101	1.2407	6.8069
-0.0449	2.5316	9.8817
1.0947	-3.3529	14.4245
1.9974	0.1621	11.0129
1.1025	0.9003	12.3020
2.0363	-0.8818	9.7669
0.1262	0.8752	13.9656
2.5926	1.0588	10.4626
1.4249	2.9252	8.6775
-0.0610	-0.4217	12.9750
0.7268	1.9430	10.9028
2.3605	-2.0853	11.0907
1.7438	3.0748	10.6169
-0.8722	0.1214	11.0793
-0.3194	-2.1679	7.3717
2.3773	1.9621	9.2907
-1.3639	-0.3386	5.8373
2.8845	-2.0512	7.5750
-0.5372	1.9711	14.2946
0.2829	-3.6975	7.8843
1.3980	0.1579	8.6345
-0.2782	-1.3836	15.0723
1.9621	1.5870	8.4658
1.0696	1.1707	12.3756
3.1035	0.2028	11.4065
-0.2626	-0.0849	11.1553
2.8433	-0.0245	8.0398
-0.2632	-0.1041	5.6925
0.4271	-0.5826	5.8935
2.8600	3.5958	9.2434
-1.7659	1.6905	11.2540
1.1288	1.4136	8.7607
-0.1244	2.2403	10.3334
0.7878	-1.3801	6.7310
-0.6263	3.2405	9.6771
-0.9601	-3.3798	12.4994
4.1473	1.5900	7.1778
0.0610	-0.6150	11.7230
1.6564	2.2774	6.6275
1.0223	1.5033	13.8209
0.9607	2.1248	12.6394
1.8837	1.7258	7.5469
-0.1352	-1.9597	10.5457
3.1352	2.9085	9.8392
0.9876	-1.9657	8.3383
-0.4020	2.8241	9.2004
1.9388	2.2528	5.3174
0.1735	0.6449	12.3768
3.7735	1.7444	7.4225
-1.7725	0.3344	12.4211
1.5218	2.2588	10.4279
-1.4584	1.2341	13.3369
-0.9852	-1.9436	6.3637
1.9454	-1.5972	7.4793
1.2341	-2.7553	12.5216
1.5123	2.3091	5.7798
0.2895	-4.1228	9.7507
2.6112	2.9934	11.9778
0.3577	-2.1990	9.4612
-0.7819	0.2070	8.5681
3.2590	0.4128	8.4717
-1.0594	-0.1083	12.1842
4.1868	-0.0664	7.3376
-4.0014	3.2919	14.3066
1.3681	-1.9603	9.3206
-2.5789	5.2642	10.5248
2.1781	-2.9922	9.3344
0.8602	3.5784	8.7738
-0.2315	-2.0608	12.8009
3.2423	1.6839	6.8692
-1.5924	-2.2128	10.4853
2.7870	0.4768	7.7503
2.0506	-2.0943	4.5087
-0.0808	1.9011	10.0803
4.6797	2.8349	4.7396
-3.2417	1.1533	11.1565
3.2680	1.7240	9.9110
-1.6199	1.3220	16.8741
2.6255	-1.5499	11.3676
2.0776	0.4146	12.7890
1.1204	-3.4008	11.6883
0.4104	-0.0700	7.6965
0.6969	-1.4710	5.6937
2.0674	3.2399	8.1948
-1.7468	-1.2161	10.3950
1.1300	1.0331	11.4646
0.8518	1.7049	11.7451
1.1982	0.4959	9.7890
1.7743	1.6815	10.5355
0.0054	-1.3878	7.7348
1.8066	2.0686	6.0221
0.8106	-0.0072	9.9032
1.6044	2.3450	6.9577
1.3824	-0.9697	9.1340
1.2467	0.5707	7.9962
1.0941	-1.2640	6.2052
-1.2999	1.9268	8.7990
1.3148	-0.4929	7.2466
-0.8985	0.4349	7.7025
2.8068	-0.1029	8.8743
0.5725	1.6570	9.6861
1.4405	0.3577	9.8327
1.3089	-0.0897	11.5567
0.0215	-0.9733	11.1457
-0.4146	0.2124	11.4741
0.8704	0.9338	9.6789
0.1466	1.2413	7.5033
1.0552	-1.4782	7.0654
0.2411	2.5555	10.1892
0.0730	-0.6024	10.1461
-0.0473	-0.5312	12.0376
-0.0598	1.0235	8.4071
1.5936	-2.2445	11.1870
1.6032	-0.5474	10.9034
1.7707	0.8937	12.5922
1.7456	0.4654	7.5003
0.0167	-0.2937	13.6121
1.1258	2.9420	11.3617
0.2339	1.4028	9.0502
-0.3547	0.0879	6.9703
-0.2632	0.7783	9.2010
-1.4303	0.1854	5.1972
1.0014	-1.2257	7.3471
-1.2096	1.5972	11.9347
2.2014	-2.2534	10.3064
1.0265	1.9621	12.3325
1.8550	-1.5769	9.8213
-0.1484	-0.3440	11.5351
2.1679	2.9862	10.3363
0.5521	1.1456	8.3300
0.1567	-1.1820	6.8201
1.0546	2.8139	7.6965
-1.5302	0.0592	6.8255
1.2688	-1.4189	8.4753
-0.0622	3.1095	9.8279
1.0451	-3.0819	9.5605
-0.6556	3.5593	13.4596
1.1162	-3.9822	11.0428
2.9850	2.9306	7.7360
-0.4822	-2.0662	11.4065
2.0159	3.5336	6.4307
0.5689	0.9302	3.0042
-0.8500	2.9856	6.6293
0.5366	-0.1789	5.6740
-1.9507	-0.0455	9.8135
1.7653	0.8620	7.4123
-2.1888	-5.1996	13.7126
3.2076	0.4606	8.2989
2.0704	-1.5972	13.8669
1.4459	-2.9013	13.4045
1.9543	-0.0227	12.2949
-0.8800	2.4532	8.4801
2.5633	3.2249	7.6456
-1.1791	-0.0497	9.1190
3.6897	2.0052	7.6355
-2.4891	2.3264	7.4327
-0.7944	-3.5958	8.2516
-0.1795	4.8724	9.4546
0.5773	-5.0255	13.7521
2.7475	1.6887	12.3266
1.7007	-3.7830	16.5535
1.3711	4.2389	7.8179
0.6233	-2.0524	8.8462
1.3292	4.2891	5.2672
-0.3811	-0.6550	8.2002
-1.1366	-0.1238	7.2275
1.2813	4.3639	11.1571
-0.9087	-3.7041	11.7128
2.6476	2.4006	14.7930
-0.0353	-1.3382	12.6885
0.4469	2.1284	5.8869
-1.9627	-1.6564	5.5065
1.6804	3.8482	5.3641
-0.1938	-1.1569	5.4341
-1.5888	-1.8813	9.1011
3.3954	0.6239	4.9705
-0.3422	-3.6777	11.1936
2.5310	1.8455	6.8560
0.3727	-0.8494	16.9925
0.8596	3.3206	9.6101
3.5162	-0.5916	12.9409
1.4608	2.3264	10.0935
1.0762	-0.6215	3.6209
-1.5248	4.2520	9.2973
0.6628	-0.3099	3.8967
-0.9763	0.9350	8.7362
1.6151	1.0056	7.9699
-0.2824	-2.2732	15.0053
1.3262	0.3900	9.7411
1.0618	-1.3214	11.7613
0.6580	-1.6606	11.1828
2.1571	0.2877	11.7882
2.1374	2.1123	9.7782
3.0975	2.6985	10.2699
-1.1904	0.5192	13.8131
2.2774	0.7938	10.2352
-2.2893	2.4819	9.2703
0.1645	-2.7739	7.3029
-1.0277	3.4959	10.0109
0.6676	-1.7168	10.6319
1.0989	3.2853	12.6891
1.0995	-1.3190	10.9662
1.7940	0.3099	8.1146
-0.6598	-2.4137	9.2560
1.8915	0.7609	9.2859
0.9679	-2.9121	9.7286
1.1503	0.9703	12.0645
1.7479	2.7182	11.7601
0.2207	-0.8997	13.3902
1.2287	2.5735	8.5812
-2.0662	-1.7497	12.0460
2.4933	1.4782	8.1852
0.9811	-0.7819	9.6795
1.5141	1.0475	8.2947
2.1003	-1.1934	11.0673
1.3872	2.5005	11.9000
1.7713	0.5109	7.0923
-2.7260	0.5073	10.7593
1.3908	-0.5216	6.0395
-1.1282	0.8477	8.7619
-0.2345	-0.6090	9.2691
3.0640	1.6265	11.0691
0.2255	-1.3920	10.4159
3.7842	1.6319	7.3064
-1.1719	1.5511	9.9296
1.2592	1.4973	8.0219
0.4528	1.2179	12.4259
1.9759	-0.3781	11.5357
0.8261	0.2082	10.6558
1.0756	-1.7354	10.4321
1.5416	1.0014	8.4580
1.2036	-0.4026	10.4997
0.8530	-0.0096	9.1118
0.7442	-0.6203	8.4400
0.5097	0.8650	13.0336
1.3729	1.1689	6.4181
0.9691	1.2556	8.1643
1.4913	1.5541	9.6610
1.1115	0.7005	9.3481
1.2329	1.0415	9.6233
0.1747	0.3751	11.5375
-0.0556	-0.6814	9.9840
2.4389	-0.5521	11.2833
0.4451	0.9111	10.6301
2.1069	0.0634	9.7375
0.4014	-0.0520	8.5914
0.4283	-0.0179	8.7523
0.5970	0.2171	7.8233
-0.1908	1.3950	10.6043
1.4052	-2.1206	11.0326
0.1436	1.4345	8.6889
0.3661	0.3123	9.2021
-0.2189	-1.0774	7.0133
0.1107	1.5990	6.9451
1.6726	0.5456	9.8422
1.1216	1.0475	10.1706
1.5625	-0.5133	7.5804
0.7519	1.1420	9.4187
-0.1705	0.7938	5.9096
0.2608	0.8506	9.9194
0.8674	0.4253	9.2141
0.3936	0.0502	6.4516
1.6313	1.6708	9.9278
0.7250	1.7892	7.7659
-0.3571	0.9541	12.0741
0.0323	0.4893	8.6781
0.2100	-1.1503	10.8466
0.9045	-0.2895	10.3908
1.1396	0.9003	7.7653
0.3930	-0.0562	10.9423
0.7980	0.4983	6.5515
0.2345	-0.6712	11.2953
1.2371	-2.3868	9.3894
0.3799	1.3525	8.2899
-0.1615	1.8556	11.3796
1.0235	-0.1591	6.9140
0.3637	0.4582	12.5682
0.7250	-2.5388	9.3846
0.6778	2.1559	9.8602
1.2090	-0.9709	8.4915
1.1067	0.5121	9.0125
-0.0018	0.7442	8.4065
0.3458	0.5611	10.9004
1.1234	-0.5491	9.8183
-0.1681	1.1844	8.3952
0.7029	1.5015	8.7391
0.3206	-0.9643	8.9449
0.6461	-1.4955	11.2324
1.6486	0.7657	10.6947
-0.3733	-0.3553	10.3286
1.2161	-0.0329	10.8448
0.8315	1.5727	9.2853
-0.8800	0.9009	12.0281
0.2674	-0.8297	8.4849
0.9541	-0.4869	10.9477
1.1139	0.4768	9.8895
1.2592	-1.4548	10.2029
0.1914	2.0010	6.0113
0.8644	1.5667	8.2510
0.6347	0.6556	11.2133
0.9452	1.5272	12.6550
-0.1107	1.1198	10.5080
1.8885	-0.4798	14.0667
0.7675	-1.8114	11.7152
0.5970	0.5868	8.1379
-0.9290	1.1342	8.8049
0.1567	-0.5665	6.2153
1.1898	-1.3860	10.8269
1.6630	-0.7298	10.2466
1.4554	-0.0096	11.5148
0.6060	-0.3284	10.9142
0.7149	0.8303	11.7302
0.5258	0.3876	9.4277
-0.9087	0.5737	10.9399
1.1390	0.0150	8.7290
0.5480	-0.0443	10.2167
1.8299	1.2090	10.0307
0.5821	0.3649	8.4233
-0.5521	-0.0042	11.7499
-0.6203	0.6209	9.4540
-0.3434	-0.6843	11.2031
1.4871	-1.2802	9.5437
1.1336	1.2191	9.3511
1.4853	-0.2650	9.1465
1.0959	0.6706	10.1060
-0.5928	0.7747	7.5685
1.4034	-0.9571	8.5070
-0.1795	1.7109	7.2275
0.5874	-0.0676	9.4600
0.5976	0.0855	10.1736
1.8658	-0.5085	9.9583
1.0080	1.0917	12.4767
0.7938	0.5832	10.5290
-0.8339	1.4471	9.3846
0.3607	0.4469	5.7344
-0.0700	-0.2638	9.7202
0.6251	-0.1920	10.8873
2.6698	-1.0199	11.9222
1.1025	1.1210	10.6127
0.4941	-0.6245	12.5347
0.2339	2.0722	8.8325
-0.2207	0.1777	9.7896
0.6550	1.0540	9.9684
1.7599	-0.6030	10.8610
-0.0951	-0.1627	11.8504
1.6379	-0.5378	12.3816
0.9517	1.5697	10.2945
1.5440	-1.2873	10.8663
-0.0634	2.7535	9.8847
0.6975	-1.1354	8.0279
-0.8411	3.2524	8.7068
1.1677	-0.5725	9.6466
0.7190	0.0383	10.1988
2.3168	0.4606	11.7768
-0.1525	0.7370	7.7509
-0.2070	0.9751	7.0929
0.1442	-0.0975	7.8610
1.1485	1.6702	7.9166
1.7952	-1.7288	10.6091
1.1599	0.3452	10.1150
0.9601	0.0018	12.2913
1.1791	0.6156	9.5030
1.4632	0.7711	9.1124
1.2634	0.6233	8.9976
-0.4158	0.1226	10.5158
1.0851	-0.2776	9.5395
0.3428	1.3543	10.8400
0.3476	-0.9583	8.5663
1.3334	0.9308	8.0835
1.7587	-0.8566	10.3704
0.1184	0.9063	11.3964
2.1404	0.1023	11.3156
0.0820	-0.9314	9.6699
0.8889	0.4516	8.2887
0.1262	1.0600	11.2319
1.2951	-2.0195	10.4344
-0.0042	1.5152	9.8745
2.4341	-1.3119	9.4014
0.0359	1.4004	12.5359
0.9212	-0.5378	11.7140
-0.3446	1.1587	10.6073
1.1007	-1.4088	8.9096
-0.6269	1.0935	11.4346
1.3705	-1.9418	7.7401
1.8054	2.4275	9.2207
1.4500	2.0417	11.0261
-0.1089	-0.4618	11.8863
0.9170	-0.3703	10.5343
-0.1651	0.5402	11.5082
-0.1454	-0.0622	10.8646
0.2590	0.0867	7.6708
2.1834	0.5234	9.8315
0.6120	-0.6407	10.3441
1.1976	-0.9236	12.0227
1.0552	1.4500	9.5258
0.3081	-0.2620	5.2486
0.1466	1.8179	8.1708
0.2022	0.4217	8.6213
0.1286	1.5529	6.8291
1.0612	-0.6251	9.8297
0.9822	-0.6359	11.4017
1.5475	-0.7376	11.5818
-0.0233	0.9320	8.5681
0.0311	-1.4363	11.9898
1.1605	0.7208	9.3224
0.9577	0.2177	9.1465
0.6897	0.0437	9.6071
1.2191	0.8327	10.7395
0.7723	-0.6060	8.6985
0.8656	-0.5174	10.7629
0.2871	1.3842	9.7208
1.0594	0.2369	9.1938
1.1832	0.1113	10.5529
1.3633	0.0491	9.5270
0.6275	0.2734	7.8694
0.8040	1.0092	9.4773
0.7537	-0.8806	8.7044
0.8094	1.6283	10.8568
0.6221	0.5880	9.6693
0.7585	-0.0981	9.1944
0.3374	0.2698	9.9732
0.3906	0.0108	9.7094
0.8124	-0.8130	9.1363
0.3763	0.7238	9.3044
-0.0670	-0.1059	8.9497
0.7256	-0.6814	8.9294
0.6323	1.2903	9.5437
1.1671	-0.8124	9.1782
-0.0568	1.4130	11.6123
0.2136	-0.4283	7.0277
0.9296	0.5958	9.7914
0.4493	0.9607	11.0368
0.6778	-0.6185	10.2323
2.0076	-1.3035	11.1553
-0.6778	1.7001	10.7910
0.5157	-1.3202	8.8612
1.4578	-0.2500	7.6229
0.3488	1.4590	6.9942
1.2251	0.2656	7.9699
0.2835	1.3131	9.1687
0.2919	0.5832	9.3218
0.7854	0.3476	11.9407
1.6588	0.5294	10.4895
0.3326	-0.3864	10.5367
0.6885	0.1819	10.2664
-0.1519	0.3589	8.2259
0.4666	1.1665	8.3886
0.6688	0.1023	7.7330
-0.0437	1.8335	8.3102
1.7623	0.7089	13.3920
0.3278	1.0899	12.4049
0.0658	0.0951	10.7048
0.0514	0.6179	8.5830
0.3200	0.7352	8.0285
0.8865	-0.4672	8.7021
-0.2201	1.1145	8.3677
1.1258	0.9511	8.8402
0.2381	1.0648	12.5987
1.5146	0.6808	11.8552
0.3206	0.9129	12.0454
0.9811	-0.0239	9.5473
0.6018	-0.1424	9.2775
-0.3858	0.5450	4.4243
1.0965	-0.0269	9.3206
-0.1041	-0.2752	9.4618
2.1398	-0.2028	13.3280
0.5886	1.6433	9.9170
0.3559	-0.4558	12.0992
1.0199	1.2024	7.2394
0.4169	-0.6825	7.8939
0.3428	-2.2445	5.2714
0.7083	0.8231	7.0014
1.1946	0.7854	8.7882
0.9344	-1.8048	13.8221
0.0562	2.1691	10.5044
1.2287	-0.8734	11.4963
0.7101	0.2680	9.4983
-0.1759	0.0455	11.6141
0.1298	0.3248	8.1481
0.2859	-0.9254	8.3467
0.7998	0.3170	11.1589
1.1539	0.2596	10.6127
0.8668	0.3380	10.3836
1.1557	-0.5252	11.3192
0.6694	1.2209	11.2067
0.8369	0.2016	9.9475
0.4241	1.0020	10.5188
1.4369	0.7914	9.4241
-0.1830	0.9876	10.6438
0.8333	-1.5458	10.0007
1.0104	2.0094	8.4981
1.1575	-0.5300	10.2963
0.2237	0.3015	9.1477
1.1001	0.2835	9.0711
1.4225	-0.5533	12.5030
0.3362	-0.6215	9.8614
0.2028	-0.1926	10.8879
1.7150	1.2550	8.3192
-0.5456	1.2556	8.4562
0.4068	0.9595	7.2053
-0.2877	0.7908	11.1882
1.8395	0.4983	11.2402
3.1005	-1.4937	14.3431
0.8554	-0.3517	10.4877
0.9374	-0.9811	12.7848
1.0475	2.6740	11.0494
0.8213	-0.4624	9.0891
-0.6072	0.2495	6.9882
1.6660	0.9446	8.6871
-0.5940	0.5210	8.3156
1.4530	-2.5184	11.1331
0.7376	0.8453	12.9768
0.7621	-1.4608	10.6857
1.3711	1.2173	9.2979
0.1184	0.6042	8.3210
0.1639	1.3483	10.8215
0.8494	0.6329	8.1451
0.1932	0.0263	8.2498
2.3611	1.7946	10.1168
0.8130	-0.3260	12.7010
0.2608	-0.2883	8.0249
0.9434	0.7358	9.8775
0.8183	0.9924	7.3029
0.1699	0.3123	9.9122
0.4175	1.4016	6.7244
0.0096	-1.1713	10.5571
0.6802	-2.3581	10.5613
1.2096	1.0080	9.0029
0.7890	-0.2883	4.8981
1.4578	2.0393	9.8362
0.0921	1.1396	9.2985
-0.6688	1.4853	13.9148
0.7274	-1.6947	9.8709
1.0869	0.3147	10.6043
0.1699	-1.4979	9.8309
0.0706	0.5139	9.4151
0.7226	-0.3320	9.2309
0.5055	-0.0610	9.3020
0.0700	0.1579	10.1994
1.8945	0.1908	11.2983
0.9876	0.3248	9.8584
0.7807	0.4959	8.3072
-0.0227	-0.9236	10.1910
0.0568	1.2921	11.0273
1.3232	0.0185	10.7090
0.7484	1.2586	9.6197
0.7495	-0.7202	10.9304
0.6867	-0.0461	10.5822
1.0044	-0.3715	9.4510
0.8124	1.4841	9.1740
1.3376	1.2287	9.7274
-0.1723	0.0006	8.3431
1.1826	0.8483	8.6781
1.0331	1.1761	9.6047
-0.1920	0.6742	9.8614
1.3555	-0.3416	10.0683
0.1807	0.2770	9.8703
0.7137	-0.4690	8.6081
0.6945	0.9906	9.3062
1.0833	-0.1059	10.0103
0.6305	-0.7436	9.0179
1.4979	0.2835	9.2703
0.0550	0.3368	9.7579
0.3033	-0.5803	8.3437
0.9284	0.4696	9.1992
0.7735	-0.1166	10.1880
-0.5450	0.6030	8.5214
0.7137	-0.4504	8.9784
-0.4774	0.7454	9.1268
0.8118	-0.1256	10.2532
1.1713	0.6610	9.1184
0.2650	-0.2100	9.4402
0.5892	0.6108	8.3838
0.7244	-0.5186	11.6398
1.1336	1.2425	8.7296
0.9362	0.9212	10.3046
0.5204	0.9828	10.5421
0.5749	0.0431	9.2895
0.2321	1.3454	9.6059
0.2859	-0.4917	9.0987
0.0646	-0.0395	10.3345
1.4303	-0.5300	11.2630
1.2060	0.7478	8.8510
0.5438	-0.1860	10.9220
-0.1549	1.1671	8.4699
0.5946	1.2233	9.1555
1.1252	0.5402	8.1260
1.2664	-0.2710	9.8781
0.3834	-0.6831	9.8853
1.5206	-0.5719	11.2522
0.7268	0.5246	9.6945
1.2371	-0.7274	10.8646
1.5505	3.1400	9.5617
0.3535	0.4989	6.8327
0.0957	1.5081	8.8474
-0.5079	0.7322	11.6697
0.6891	-0.9428	7.6020
2.3593	-1.3842	11.0446
1.1001	0.3649	10.5032
1.3077	-0.1119	10.9537
0.2118	0.3715	8.1439
1.2449	0.1669	7.7282
0.5067	1.0606	10.9896
0.2889	0.0437	8.9246
0.4923	-0.0389	9.5030
0.6508	-0.3356	9.3583
1.0205	0.2530	10.5672
0.4134	0.6742	12.1345
0.7729	0.4301	9.9302
-0.1962	-1.1390	11.6793
1.1043	-0.6030	9.1447
0.6251	1.5685	8.9647
0.5862	-1.0415	5.0309
0.7149	3.3703	7.7216
0.9158	-1.1809	7.8694
0.1238	1.1497	9.8422
0.1747	0.2764	8.4867
0.1663	-0.5127	11.4819
1.1994	-0.9799	11.1445
0.0138	-0.4008	7.3609
-0.5127	1.4644	7.5750
0.2560	-0.5288	7.7575
0.5438	1.9400	8.2749
1.0576	-1.2754	11.5327
0.5091	0.4881	11.1044
0.8865	-0.6108	11.0745
-0.1603	0.3380	11.0847
1.2610	0.1394	8.0727
-0.4277	0.8734	10.5008
0.4606	-0.2399	8.1966
0.8907	-0.4355	10.2711
1.0486	0.9135	11.7702
1.1773	-0.5366	12.0777
-0.2500	-0.2441	10.6839
1.1970	-0.5695	8.5447
0.4498	0.6562	8.0572
0.2698	0.8716	9.1340
0.7059	0.3170	8.5465
1.0325	0.0132	7.7784
1.9591	0.5593	12.3613
-0.6718	1.6193	9.1208
1.8233	-1.4853	5.3396
0.4839	2.7410	9.6759
0.8512	0.7543	7.7880
0.8955	1.1503	10.1096
1.4303	0.7172	12.0496
0.1866	-0.1789	13.0462
0.9906	0.8823	11.4448
0.6191	0.5904	9.4761
-0.6766	0.8321	12.0986
0.8752	-1.0618	9.9469
0.7908	-0.5462	10.1276
1.0367	-1.2138	12.2273
0.7334	1.2574	9.7483
0.8973	0.4887	7.5816
1.5894	1.6738	11.2713
1.7228	1.1575	10.6013
-1.3430	1.8610	6.7178
0.3685	-0.6580	8.1272
0.4953	0.1561	8.0243
1.7408	0.3990	10.5224
0.3111	1.0486	9.0412
1.5529	-0.5282	9.5677
0.7735	1.5135	9.4337
0.4822	0.0455	9.9595
1.2006	-0.0652	10.0175
1.1581	-0.6114	9.2321
-0.0090	0.7059	9.8159
0.6969	-0.6263	9.8015
0.4008	0.1543	9.3750
1.2622	0.4014	11.0165
1.3801	0.9900	10.3537
1.4817	-0.7005	8.1152
0.7202	0.7878	8.6656
-0.6646	0.0538	8.2947
1.2502	-0.7077	9.3966
0.3278	1.7755	8.9306
0.0024	-0.6622	10.6151
-0.2297	0.3003	8.5567
1.2335	1.0421	8.5178
0.2118	-0.1669	9.3164
1.1575	0.8949	10.9531
0.5426	-0.7998	10.1300
0.9649	0.3266	9.8165
0.2207	0.0173	8.5292
0.9583	0.3057	9.8165
0.1561	-0.6975	9.6424
0.3781	0.3021	8.8325
0.1561	0.5252	8.3467
0.4606	-0.1196	8.3754
1.2347	0.7836	7.5655
2.0913	1.9322	13.6414
0.8770	0.5946	11.5764
0.5061	-1.1139	11.2091
0.1825	0.4827	7.0205
0.6179	1.6283	8.7619
0.1382	-1.0307	5.1356
1.6522	0.0676	10.5038
0.5468	-0.2136	9.4564
0.9452	-1.4847	12.2643
0.9410	1.2538	9.9248
0.1053	0.1519	11.6165
0.1496	0.0514	7.9346
-0.2034	-0.0491	8.7726
-0.0514	0.6287	9.1160
0.6963	-0.8674	9.0729
0.6419	0.9075	8.8193
0.9966	-0.1645	10.7485
0.9135	1.0134	8.7702
0.4510	0.6861	8.7098
0.7107	0.9505	9.0879
0.9918	0.2327	9.4091
1.5087	0.4941	11.1505
1.2664	0.6359	11.0745
1.3250	-0.3583	12.9020
1.7079	1.7491	11.4717
0.2835	0.2034	9.3194
0.8165	1.0624	9.9864
0.3200	1.1228	9.7812
0.5695	0.3458	11.8253
0.8895	-0.7095	10.2855
1.2742	0.9087	8.4915
-0.4355	-0.2124	6.1244
-0.0969	0.7202	9.5509
0.4528	-1.7462	9.2207
-0.1244	0.3188	12.4139
1.2054	-0.6371	10.2747
1.0666	0.4295	12.0843
1.9513	-0.3356	11.2713
0.5641	-0.3685	11.5040
-0.2399	-0.2512	10.2759
1.4722	0.0156	10.1946
-0.0395	0.8536	7.0307
0.5593	-0.5719	8.9521
0.6640	1.1629	8.8725
-1.0080	0.7807	7.8831
1.1474	1.3250	8.1086
0.4564	0.9643	9.9930
1.6026	0.5916	11.8510
-0.3601	-0.2249	7.7013
0.1196	-0.1519	8.6225
1.7372	0.2584	7.8903
1.1186	2.3814	11.6177
1.1719	-0.6036	10.5391
1.9609	0.6790	8.5519
0.8764	-0.3386	12.4157
0.3571	0.2734	11.4640
0.6592	-0.4481	8.8971
1.3519	-0.6413	9.2703
0.1250	0.4187	7.9986
0.5456	0.3565	7.7605
0.4756	-0.7944	9.6341
1.4584	1.5146	10.0767
0.2130	-0.5109	10.9830
1.1958	0.9218	10.7192
0.5527	-0.5551	8.9383
-0.0239	1.0301	9.1005
0.9164	1.0175	9.7334
0.5587	-0.0042	8.8510
1.6056	1.3113	8.6285
0.2518	1.8072	8.9545
1.2144	-0.6772	11.1654
0.8584	-0.8692	10.7730
0.8823	0.3015	13.0247
2.3671	0.3799	9.8721
-0.0227	0.7101	9.3547
0.7777	1.5799	6.3409
0.1023	2.3198	8.4376
1.4931	-0.6144	7.9752
0.2746	1.0947	13.1742
0.6317	-0.7478	9.5778
0.2572	-0.0945	11.9766
0.3858	-1.4488	9.3690
1.0211	1.1509	8.3366
0.5725	0.0317	9.0885
0.6909	-0.1525	7.8095
0.4720	1.1659	8.8941
0.5533	-0.2722	9.9702
1.6140	1.1480	11.2163
-0.7172	-0.7316	7.5541
1.7808	0.8411	8.9090
0.3517	-1.6732	9.9804
-0.7525	1.2897	11.4574
0.4905	1.4686	8.5184
1.5392	-1.0971	10.7491
1.1635	-0.4092	10.3657
-0.8231	0.0479	11.3413
-0.1364	-0.0359	9.2129
-0.7346	1.7856	7.8909
1.2048	-2.0273	10.9866
1.6415	-0.5168	12.3385
0.5198	-0.1286	8.6620
1.2203	0.9260	8.6877
0.6622	0.0993	6.4600
-0.0933	-0.0993	6.4911
1.0881	0.3757	11.1266
-0.6401	0.4546	9.6406
1.3483	-0.1513	11.3312
0.6915	-0.3577	10.0085
1.1103	1.8126	7.4297
0.1980	-0.6455	9.6831
1.8377	0.8165	10.0049
0.5497	0.4965	9.8267
1.0277	-1.3639	9.9924
0.1513	-0.3398	8.4915
0.8644	1.0140	8.6805
0.1842	1.3567	8.8414
1.5045	-0.1137	9.0119
0.1029	0.9021	8.5005
1.3699	1.3478	10.5678
-0.3164	-0.2309	11.0344
0.1926	-0.3320	8.6596
0.6449	-0.3739	9.6927
-0.3912	0.0873	10.4697
1.6720	0.6185	10.2550
0.1777	0.8847	10.3441
0.6796	-0.2441	10.1916
0.3793	0.1980	10.9441
-0.4008	0.1448	10.5954
0.7316	-0.4732	8.4478
0.8626	0.5342	8.1098
1.5410	0.6084	13.3321
0.4433	1.1061	11.3395
0.2955	1.2191	9.8925
0.0622	-1.0128	7.3160
1.3316	0.9781	7.5667
0.0203	0.4624	12.7752
0.7585	-0.1615	8.9078
0.5994	-1.4865	7.7204
1.0821	1.3190	9.6801
0.6156	0.0957	7.4967
0.4905	1.0253	12.0532
0.7573	-1.1551	9.7262
0.1693	0.2177	9.5162
0.1729	0.3326	10.2664
1.0552	-0.0802	10.5098
1.2359	-0.2895	12.0167
1.0684	-0.3709	10.2035
0.0903	1.3334	13.2986
0.4600	-2.1302	9.2099
0.7729	1.1761	7.6965
0.0084	0.1047	9.3314
0.6455	1.5051	9.7764
0.6359	-0.1986	9.6035
-0.3834	-0.6024	8.4365
1.7557	2.0506	9.3242
0.3942	-0.6114	10.8017
0.7113	-0.5121	10.1599
0.0335	0.1771	11.0021
0.9063	-0.4983	10.6911
1.7085	0.3924	9.6616
1.0786	0.4403	10.4261
0.7017	-0.2907	10.5750
0.3870	0.2124	9.2404
0.4169	0.3224	8.9988
0.5127	1.4447	9.6544
0.3781	1.0666	9.1519
0.7406	0.7639	8.0339
0.6490	0.4265	7.3681
0.3117	-0.0544	9.9314
1.3675	-0.8961	9.8602
-0.4839	0.9344	12.3331
1.4147	-1.6618	8.6919
-0.1747	1.8036	8.4478
-0.7202	-0.8716	8.6231
0.9482	0.9314	8.1876
0.8195	0.1238	8.1906
2.2600	0.5767	8.8534
0.2985	2.0985	10.5367
-0.0586	0.7962	11.6051
0.5731	0.0526	8.5722
1.0080	-0.3476	9.4917
2.0273	-1.1067	12.0801
0.4708	1.4070	8.3431
0.3105	-1.5248	8.1182
0.7735	0.5426	9.0747
0.2644	1.2520	7.6630
0.1490	-1.9202	11.8253
0.4259	-0.1466	10.2616
0.6742	0.3482	10.2113
1.6283	1.1838	9.8931
0.4660	-0.1490	10.9310
0.4481	1.7408	12.3517
0.7244	0.8177	9.5736
0.7657	-1.2449	12.1004
0.4349	-0.8841	9.5144
-0.3553	0.2447	8.4155
0.8046	1.8496	8.1140
0.2883	2.5047	8.1194
1.4435	0.6873	9.8075
0.4851	0.4128	9.2285
0.9404	1.0618	11.3539
0.5826	-1.6869	8.3611
0.9230	1.0714	9.4899
0.9613	0.1711	9.1256
-0.4929	0.7639	11.5202
1.4590	0.5121	10.3704
0.8028	-0.8249	11.0255
1.5152	0.2142	10.2855
0.7346	0.4822	7.7665
0.2040	-1.4471	11.6368
0.2590	0.4349	11.2953
0.0150	0.6790	10.4709
2.0626	0.2794	7.4087
0.0167	1.6935	8.3431
1.1809	-0.4845	8.7810
0.9446	0.7280	10.7682
0.3009	0.2393	7.3615
1.1521	2.0177	8.4987
0.3314	0.5677	9.2566
1.1109	-0.2877	9.9972
1.5619	0.5497	9.3200
1.6032	-0.9296	9.7866
2.2594	-0.1585	8.0733
-0.0832	2.7948	8.2707
1.1180	-2.6291	8.5860
0.6449	2.7117	12.4145
1.0050	-1.1994	10.7874
1.4752	1.8945	9.2829
0.1292	2.5465	6.9924
1.3214	-1.2263	9.5401
1.8311	1.1952	9.8578
0.3254	1.0157	10.0187
2.0662	0.3553	7.9705
-0.8500	2.3198	7.0379
1.6337	0.7555	11.7517
0.6700	-1.0062	7.9244
1.5266	1.9202	11.0859
3.4594	-1.5386	9.6622
-0.0604	1.4459	10.7401
-0.8046	0.6586	7.9746
0.7256	1.2102	7.6115
1.2945	0.0096	8.6668
0.8961	0.1226	11.6518
1.0445	0.2171	7.0935
-1.3190	-0.4409	7.3549
1.5487	0.3141	9.9864
0.2572	-2.0339	8.8947
1.5511	0.1448	9.3050
-0.2901	2.1332	8.6949
-0.0903	-0.2919	7.3477
0.1149	1.0433	7.5409
0.6814	-0.6401	11.2283
2.7188	0.2710	10.4291
0.6957	3.1657	7.6989
1.8377	0.5575	10.8789
0.0544	2.0668	12.3367
0.0921	-2.3270	6.8542
1.6887	-1.3609	11.5752
1.7079	-0.3428	5.2726
-0.7824	1.8413	12.0388
0.7053	0.3691	9.1226
0.0712	0.5970	8.6063
3.7765	-0.7663	11.8229
1.5631	2.1559	9.1842
0.9158	-1.0726	12.8596
0.7394	1.8108	9.6466
0.1723	-1.1091	8.2247
2.2977	-1.5529	10.6863
1.9489	3.5934	6.6042
0.1113	0.2165	11.8366
-0.0843	2.7434	10.5385
1.3824	-2.4718	7.4087
1.8616	-0.5318	12.0185
2.1649	2.8720	4.8993
0.0676	2.4239	12.3433
1.9029	2.7667	9.9278
-0.1549	-1.2287	10.6851
2.6058	0.2877	12.4438
0.4744	1.7348	10.0265
0.3966	-2.2295	5.9641
0.8680	2.2720	8.0542
0.2602	-1.0068	11.6620
2.6255	0.3093	14.7738
-1.6175	1.3424	8.1720
0.8847	-1.1031	9.0107
-0.1914	1.3029	8.4030
1.0044	-0.9332	9.3242
1.3765	0.4804	11.5890
0.5838	0.5599	3.7262
1.0947	3.2058	12.2314
2.0704	1.9705	11.9138
1.5027	-0.2363	9.4678
3.4606	-0.6012	13.0546
-1.3878	2.6028	6.5001
1.8724	-0.2447	5.6369
0.8279	2.3366	9.9248
0.5216	-2.0620	12.5970
1.8754	0.2070	11.5160
-1.0451	1.6959	5.8672
2.4736	-0.7537	5.0357
0.2327	4.2915	8.6530
-0.3631	-2.3097	8.8743
1.8855	0.7992	11.7050
-0.1854	0.1986	8.5657
1.7832	-0.1101	10.9322
1.2520	0.7394	10.3028
-0.9655	0.6347	9.0670
2.4981	-0.2100	11.9216
-1.3065	2.7481	4.6480
0.7352	-2.1481	4.7880
1.6672	2.4688	11.3587
-0.9864	1.5966	9.6975
1.9824	-1.5135	9.1956
-0.0628	2.5166	7.5254
-0.3930	-1.0504	8.9479
1.4949	0.9152	8.8965
1.4500	0.7759	11.4424
0.4469	-0.5366	11.3335
1.3436	-0.6102	9.8081
-0.8877	0.9147	9.3696
0.7824	0.1424	9.1710
1.3178	1.2556	9.2093
1.5015	-0.3511	9.2033
-0.1352	1.3178	9.2769
1.2389	-0.7765	9.1998
0.2692	1.1354	10.0438
1.4273	-0.5013	10.9441
1.1145	1.1952	9.2213
-0.5557	-0.0233	8.5567
1.2389	-0.9194	10.0241
1.4889	1.1174	9.5617
-0.0197	-0.6245	9.7477
1.1115	0.1065	7.7629
-0.0754	2.0518	9.3308
0.8776	-0.5210	10.2837
1.1701	0.8596	10.1706
1.7354	0.1501	7.6055
1.8873	2.0100	8.0835
0.4678	-0.8560	7.5146
-1.2939	-0.4211	10.2095
1.6492	0.7143	10.1240
0.2883	1.2598	11.7792
0.4810	0.2058	10.3884
-0.1896	-0.3260	9.4546
0.4152	0.8261	8.0231
1.6504	0.6467	7.6217
-0.4558	1.2802	11.1343
1.0971	-0.4104	7.5703
0.2877	2.6213	10.6839
1.1725	-1.4883	10.5379
1.6600	1.7252	8.8390
0.5509	-0.1938	8.6446
0.4600	-0.1053	8.5387
1.0193	0.7047	10.5014
-0.4714	-2.0596	9.4947
2.0315	1.1629	8.4963
-0.5186	1.6277	8.2450
1.3328	-1.1342	8.6016
-0.0837	0.6479	11.3120
1.6361	-0.3517	10.8388
0.9888	0.2148	10.1545
0.1322	-1.3089	11.7744
1.1222	1.1695	10.4745
0.5988	0.1687	9.5144
0.8752	-0.7495	10.5619
2.5286	0.5952	10.9172
-0.5474	0.4768	8.0632
2.4712	-1.0385	7.8245
-0.0347	0.1011	11.8067
-0.1035	-0.6825	12.7884
1.0199	1.7485	12.8500
-1.8084	-0.0287	12.4079
1.4841	-0.0407	6.8309
0.6371	-0.2447	10.7587
2.6159	0.3667	11.1451
-0.4110	0.9864	11.1900
-0.3787	-2.6321	12.6980
0.9117	0.2465	5.7870
0.1202	1.4608	8.9982
0.7065	0.5360	9.7944
0.4672	-0.7430	12.2279
0.4074	-2.1469	13.9321
1.0762	1.1306	6.6520
-0.5372	-0.6814	9.5581
-0.3141	0.1765	9.9966
-0.2818	-0.3476	6.6604
1.5422	0.0784	9.4504
-0.0718	0.4373	7.5415
-1.1109	-0.9440	8.1780
2.2594	2.5442	9.5635
-0.7143	-0.2614	7.3160
3.0490	-0.7358	8.4825
-2.3408	1.2574	7.9585
-2.7140	-2.2576	5.4610
0.2728	1.5218	8.2719
-0.6311	1.2108	8.5447
2.8815	-0.9302	8.0817
-1.9968	0.6156	6.2847
-0.0502	-2.2540	9.4008
2.7164	1.6570	8.4556
-0.3356	1.4746	13.9100
1.4369	1.4494	12.3391
-0.8919	-0.9392	7.5714
0.4080	-2.0058	7.6947
2.0913	3.4750	7.4363
-1.5446	0.6054	11.5022
1.8413	-0.1597	10.0396
-1.0445	0.0126	11.4269
1.0726	-1.8562	11.3318
0.4816	0.0185	14.0709
-0.5886	-2.6835	11.1427
2.1164	-0.3170	9.0777
1.1216	-0.0042	10.0540
1.3017	-1.2999	12.1806
1.3579	0.6239	11.4717
0.1872	-1.5464	10.6905
1.1234	0.5898	8.7176
0.4146	-1.0510	13.0324
1.1952	-1.8915	7.2891
-0.1860	-0.7705	8.5758
1.3418	0.7202	11.5447
0.6359	0.2273	10.6689
0.2686	-0.8512	12.4982
1.1515	0.1442	9.7836
-0.8333	-0.4475	8.8642
2.5436	-1.1862	12.7238
-0.1747	3.8022	8.7529
0.7400	-0.8536	10.0103
1.4788	1.4584	6.4672
0.4098	-2.3635	10.3968
2.0776	-0.1651	11.2989
-0.8106	-0.0197	9.5282
-0.2483	-0.8333	10.5224
1.0175	0.4487	9.5563
1.1551	1.0014	10.4273
1.2891	-0.0873	8.2408
-0.1765	1.0098	8.7708
-0.0066	0.9894	10.8855
1.3184	0.6700	7.8371
0.8393	-0.5300	9.5587
1.4841	0.0473	7.5368
-2.1081	2.9868	7.1348
0.0724	-2.9509	7.1635
2.3653	3.0478	9.3786
1.2766	-0.0508	9.5108
1.1575	0.4666	11.3694
-0.4463	-0.1202	11.7995
0.5312	-0.8907	13.3112
0.3942	-0.0006	10.0803
0.6754	0.2112	9.5425
2.7033	-0.4223	7.8670
-0.8770	1.8843	10.2783
1.2748	-2.6417	8.2701
1.4309	1.6809	9.7441
0.3314	-1.2580	8.9348
1.2843	2.7792	9.4031
-1.5458	-0.0754	9.2374
-0.3494	-1.9148	8.8827
2.3940	2.7942	6.3589
1.9214	1.7491	10.2023
1.0881	-0.3284	10.8538
0.0658	-1.5888	8.9401
1.5733	-1.1898	11.4328
0.3787	0.5121	8.3222
0.0538	0.6060	11.5298
3.2058	0.7866	10.3573
-0.4271	0.6634	10.1790
2.3982	-1.0756	9.4313
1.0313	1.7605	9.4349
1.3424	-1.8790	8.4376
0.4409	1.2359	10.4650
0.2883	-0.5204	10.4925
1.7079	-0.8650	10.7246
1.3884	0.9745	11.6554
0.5342	0.3224	10.3076
1.1043	0.3966	10.3220
-0.5067	0.2764	10.4362
1.0905	-2.0770	10.2077
1.4028	1.6905	10.0965
-0.5312	-0.1316	10.9974
1.6295	0.4247	9.2602
0.4684	1.3986	10.6683
0.7603	-1.9675	8.5040
0.5324	1.9890	8.7924
-1.5129	0.0855	9.6759
1.0612	0.6873	8.4586
0.0167	1.3382	11.7140
0.5683	-2.5316	8.8540
0.6712	1.3777	9.1022
-0.2524	0.7669	11.5304
0.7974	0.9057	8.9587
-0.3840	0.7663	11.0931
-0.6299	-1.5326	9.6562
0.6329	0.5569	7.6600
-1.2365	0.5115	11.6608
2.6716	-0.0706	7.4225
0.2985	0.8572	11.4861
0.5474	-1.0654	10.7922
0.7328	1.4620	8.3479
-0.5683	-0.6257	11.6949
0.7226	-1.1150	8.2785
-0.2160	0.4618	10.0325
0.7208	-1.0445	11.3509
0.5342	1.6929	10.0259
-0.1896	-0.3667	11.9048
1.4261	0.2363	9.2955
0.5468	0.9410	9.9625
-0.4002	-0.7460	10.7108
-0.4355	2.0159	8.1493
-0.5234	-1.1767	11.3766
1.2694	-0.4235	9.0179
1.5111	1.2568	11.2504
-0.1872	-0.6544	9.2865
0.0802	0.3302	9.0891
0.7005	0.3966	8.7260
0.7071	0.6502	9.1070
0.3757	0.9709	9.1998
-0.0329	1.0008	8.9928
0.9607	1.1450	10.7808
1.9238	0.4463	13.8723
1.5392	-0.5480	10.7383
0.2638	0.2237	11.1128
-0.5689	-1.1139	8.0620
0.5922	0.7340	10.7132
1.7922	0.4259	11.5453
1.6528	0.3362	9.0023
1.5535	-1.0792	10.3232
1.0522	0.4158	9.7854
0.5139	0.2315	10.7700
0.7914	-0.1328	11.4179
1.2778	0.7131	8.9916
0.0185	-0.3260	9.0329
0.6353	-0.7370	8.1828
0.9087	1.4393	11.2456
1.1575	0.2100	12.0580
2.0225	0.8554	8.8552
0.9577	0.2794	9.4606
-1.1228	-1.5972	10.5164
0.9057	-0.3057	9.1914
1.0373	-0.7639	11.7481
1.7139	-0.5629	10.0402
0.7783	0.0209	8.1505
-0.3314	-1.0881	8.2857
0.3290	-0.0514	9.0233
0.7938	-0.3529	11.7565
0.7340	-0.1155	9.3272
0.2339	-0.1196	10.1012
0.6126	0.0706	6.7998
1.1097	1.1150	8.4353
0.7346	0.2321	12.3026
1.1270	0.3643	10.1641
1.3651	0.3541	12.0879
0.0508	0.0257	10.2813
0.9260	0.3990	9.6125
0.0778	0.3828	10.8753
1.3573	0.9601	10.1479
0.4008	0.2931	8.8546
0.7555	-0.7531	8.2325
1.2484	0.5988	9.4707
0.4851	0.0508	12.0831
0.7316	0.5737	9.4031
-0.6359	0.2812	9.7316
-0.0544	-0.9158	7.0396
0.5115	1.1282	10.1336
1.5565	-1.2556	11.3054
1.1204	0.5390	8.9736
1.0421	0.4941	9.7363
-0.2895	-1.0600	6.5611
0.6622	-0.4325	8.1182
0.8518	0.4062	12.7292
0.9093	0.9541	9.7184
-1.0391	0.4618	10.5397
0.5145	-1.4925	7.9657
0.5204	1.7216	8.1936
0.3416	1.2873	10.6821
1.7067	-0.9757	10.9268
-0.5007	0.7370	10.5505
0.8357	-1.2963	8.3545
-0.0078	1.1958	10.9238
1.2562	-1.1809	12.0406
2.0297	0.2937	10.4691
-0.1131	0.2614	9.0293
1.1180	-0.2596	8.9742
1.4142	1.1994	9.4384
0.7723	1.5643	12.4061
0.8429	-1.1665	11.0476
-1.1485	1.3501	12.0466
0.0299	-0.7023	7.5625
1.5182	0.0365	9.9732
0.6682	1.4052	11.1577
1.2425	-1.3119	10.5738
0.2877	1.5404	9.8135
0.1448	-0.3350	8.0081
0.8542	0.2943	13.0546
1.2604	-0.9493	11.1290
1.8078	0.5318	10.8305
-0.0060	1.0373	9.1501
1.0445	1.4028	8.2989
0.6652	-0.0072	10.1808
1.1139	-0.1250	11.8953
1.6941	0.6490	9.4157
0.5587	-0.2853	10.2909
0.6628	-0.1519	10.4344
0.2207	0.0203	11.5830
-0.3601	-0.1166	11.6679
1.0373	-0.2279	10.3447
1.4183	0.4199	9.5880
0.4457	-0.9021	6.9732
-0.1585	0.5773	8.4837
0.6604	0.7065	12.3900
1.2293	-0.0885	11.2743
0.5121	0.2207	12.3577
0.7286	-0.6921	8.7978
0.3811	0.6766	8.9162
0.2136	0.5497	8.8109
0.8249	0.9182	8.6829
0.5115	-0.1513	10.8663
1.1456	0.0873	10.9130
0.4074	1.1719	10.7527
0.3362	0.0538	12.1411
0.9667	-0.4708	9.5778
0.0867	0.7220	9.1872
0.7998	-0.4140	8.7553
0.4564	1.0134	9.0933
0.8566	-0.0323	11.3934
0.5019	1.3585	10.4973
1.0905	-1.0211	12.2285
0.6042	0.3834	9.9020
0.3631	0.7681	11.3180
0.6473	0.8004	9.4337
0.1621	0.3218	9.5623
1.9256	0.3559	9.6496
0.1914	0.1412	10.8257
1.5164	0.2046	9.9146
0.2752	0.5372	10.2490
0.0138	-0.1854	9.6245
1.4578	0.3236	11.3557
0.4283	-0.0508	9.7052
0.9152	0.8171	10.1066
1.1372	0.0604	10.3106
0.6646	-0.0670	10.4757
0.9661	0.5910	11.7349
0.4875	-0.8393	9.5904
0.7597	-0.3775	9.3714
0.7268	0.5779	9.4719
1.7910	0.3966	8.5346
0.3452	1.0319	8.5812
0.4463	-0.9272	10.0833
0.3703	0.7585	9.7663
0.8638	0.4397	13.1826
1.2592	1.1432	10.2711
0.4391	0.1400	9.7495
0.1914	-0.2321	9.4420
0.4941	0.4947	8.6859
0.9410	0.6502	9.5724
1.1557	0.3290	9.4432
0.5043	0.2949	12.8135
-0.2183	0.5707	12.2440
1.0032	0.7364	9.9272
-0.1992	0.5617	9.2793
1.5111	0.3649	7.1976
1.3143	0.8040	10.8759
1.2903	-0.7986	10.9046
1.2592	1.4506	7.7922
1.1192	0.8429	12.3930
1.5051	1.6307	12.4109
0.2536	0.2901	8.1703
-0.4935	-2.0315	7.7467
0.1681	-0.0700	6.9936
1.0283	0.6012	11.2731
0.2028	0.1950	7.7312
1.3860	1.2425	9.3032
0.8028	1.8383	10.0073
0.0766	-0.8841	10.6779
2.3527	0.4636	11.5298
0.0263	0.2758	8.9545
1.7521	0.3631	9.1435
0.3912	0.9912	9.0329
0.5414	-0.3099	10.3082
1.9352	-0.9583	11.4233
1.4147	1.3262	9.3696
-0.0227	0.4092	10.9028
0.8967	1.2999	6.8452
1.8706	-1.1934	11.0452
1.1390	-1.8664	10.9549
1.3902	0.9697	5.0620
-0.6281	-1.2688	9.0520
-0.5288	1.4267	9.4612
0.0305	-1.7707	9.0023
1.4662	1.6582	9.5988
0.0658	0.0317	8.0757
-0.0676	-1.1934	10.6576
2.2098	0.0084	10.7922
-1.0576	0.9793	8.8313
2.0363	0.1687	8.4107
-0.2088	1.6391	8.5029
1.2891	-2.4299	10.8711
1.4596	-0.1184	13.3866
0.4092	0.9081	10.7521
0.5258	-0.6574	10.0259
0.3344	0.8991	7.2723
1.6720	-1.4997	9.4223
0.9852	0.9051	10.8675
0.6574	-1.1288	8.8384
1.7156	2.5944	9.8853
0.0814	0.2064	7.1449
1.1515	-0.7202	9.3798
1.5164	1.1162	8.0979
-0.6909	0.5480	8.9240
1.2383	1.0606	7.8418
-1.2544	1.5876	7.4775
1.4488	-1.9184	9.1932
1.6522	0.2925	9.6472
1.1581	0.2961	11.0871
1.3292	1.3609	8.5202
0.0849	0.7220	8.0093
1.2335	-0.4762	8.9252
2.1278	0.8297	8.4329
0.1017	0.8052	9.9170
0.8841	0.2447	8.5770
-1.0289	0.8991	9.1675
0.3362	-1.5936	9.4331
1.0301	1.9178	9.4713
-0.1956	-0.0491	8.1595
1.3400	0.1579	7.9651
-0.1442	0.3721	8.9078
0.2590	-0.2955	9.7938
1.2365	0.7322	9.8919
-0.2752	-1.3316	9.4121
1.1749	0.6628	8.5304
0.0000	0.7986	10.4225
-0.3039	-0.5378	9.4851
2.4562	-0.2171	10.3040
-0.6257	-1.3017	8.0787
0.6090	-0.5928	9.2680
0.4570	0.1753	10.9621
0.6820	-0.4289	10.5649
1.5111	0.4026	12.0915
-0.9033	-0.0245	8.5352
1.4064	-0.2985	7.9489
0.7166	0.6120	9.0221
0.8118	0.7059	9.6951
0.2165	-1.1013	9.0574
1.0301	-1.4847	11.1158
1.4333	1.1156	11.3850
1.5781	0.0688	11.1278
-0.8746	-0.0520	7.8197
0.0473	-0.5055	7.9471
2.0447	-0.4092	9.1669
1.6355	1.6558	8.6105
0.1585	1.4040	11.1589
1.4512	1.2377	9.7854
-0.5773	-0.2004	8.4335
2.9055	-1.2855	8.8875
-0.3948	2.2355	6.5270
1.8072	-0.2118	6.3553
0.9009	2.7559	8.9120
-0.4277	1.4321	11.7206
1.3442	-0.1801	11.5854
-0.3057	2.2199	5.1475
0.2566	-2.4431	6.6921
1.5948	-0.4241	7.4470
0.4684	-0.1119	10.4781
2.3336	2.5136	10.8777
-0.7035	1.9214	7.4016
-2.4903	-0.0413	6.5300
1.8568	1.8084	6.6460
1.0947	0.1537	10.4745
1.7043	0.7681	8.7463
-0.7226	1.1348	6.3415
-0.9571	-1.6821	5.7792
-0.0030	3.0520	10.7156
-1.6648	-1.2610	6.2399
0.9111	-1.2467	7.7521
-0.2459	-0.0048	11.0063
0.8028	-1.3795	10.7318
2.1350	2.0764	10.7826
-0.6227	-1.0738	10.4117
-1.7079	-0.6855	9.8004
1.2383	-0.4827	10.9154
0.6634	-0.2524	8.1810
0.1316	1.1587	10.5098
-0.7842	-0.6550	11.4903
1.3884	0.2847	7.1653
-0.1771	1.1318	8.3198
0.4917	0.6221	7.1449
-0.7729	-0.2925	10.6558
1.4752	0.2483	11.7445
0.8243	1.3872	6.7029
0.5204	0.4062	8.3354
1.4811	1.2090	8.4179
0.5958	-1.4052	11.4538
0.4995	0.7555	12.4205
0.3721	-0.7854	9.6478
-1.5733	-0.0592	13.2382
3.0490	-1.3872	9.8045
0.2824	0.6526	12.5270
2.5477	0.5414	8.8815
-0.0359	-0.0903	8.4406
-0.3805	-0.1190	10.6576
1.1713	1.2927	6.1908
-0.2255	-0.2495	5.7978
1.4823	2.9659	10.0253
-1.3998	1.2915	7.1569
1.6815	-3.4253	7.8586
1.7390	3.2943	9.2626
-0.0215	0.3374	7.6163
0.6784	0.6700	8.9371
-0.4965	0.6000	11.4831
-1.4698	-2.0488	13.2777
1.4004	1.4357	7.0893
-0.9278	-1.5810	8.6871
1.3807	0.1819	8.5519
2.1571	-0.9793	14.1283
0.3224	-1.0594	10.8376
0.3769	1.3818	10.2819
-0.6921	-0.7699	10.4183
0.6508	0.3781	10.1551
-0.8626	-0.9069	10.4775
0.8225	-2.4496	7.7653
-0.6389	1.1958	9.5688
-0.3948	-0.0646	8.0793
2.4813	0.8136	7.1982
-0.9015	0.6371	9.7142
0.5683	0.5300	8.2767
-0.2985	2.7146	7.5924
-0.0784	0.4235	13.1718
3.0042	1.7091	8.6357
2.6632	-0.5336	12.3696
0.3212	1.8790	10.7264
1.0774	0.1525	7.8580
0.4235	1.0247	15.2877
1.9783	1.6343	8.8031
-1.8245	-0.8752	8.9904
1.5978	-0.7047	6.7974
0.2261	2.0758	7.5218
2.4927	-0.5892	11.3156
2.1428	2.7637	6.9517
-1.3466	1.0678	12.7579
0.4217	1.2072	8.3928
-1.5631	0.2662	10.2915
3.1334	-0.6808	10.8550
0.0622	3.2435	7.2424
1.0277	-1.2957	12.0023
-0.7430	5.5178	9.1573
0.1017	-2.2498	6.8967
0.5515	2.9348	11.8061
-0.4223	0.4493	9.0053
-0.5545	-1.4518	10.0247
2.5609	1.8467	8.0213
-0.3655	1.0427	10.0420
0.7250	1.2341	8.3252
0.7382	-2.1272	12.0478
0.8949	-0.8500	9.9900
1.3250	0.5198	11.7254
0.2997	0.4463	10.0079
2.2803	-1.2993	11.2001
-1.1168	3.0879	12.1890
2.6692	-1.5888	9.3230
-0.4295	2.5609	10.7790
1.0080	-1.2054	8.9030
0.8082	0.1137	7.9920
1.5416	0.3745	8.9617
0.6634	1.7198	9.7471
0.5904	-0.0353	8.3934
1.5045	0.3093	12.0974
1.8550	-0.7286	10.4303
0.7155	0.3260	9.7962
1.4620	1.6552	8.7391
-0.4427	0.2016	8.6285
1.2305	-0.8536	11.4011
1.8802	0.4606	5.8749
0.2847	0.5719	11.5148
1.8066	0.8291	8.5495
1.2496	0.7663	10.0911
0.1448	1.5063	9.5294
0.6443	1.3699	7.0570
-0.3655	-0.3966	10.8777
2.4885	1.4237	12.1758
0.6030	-0.9559	5.4299
0.6676	-0.4845	9.2177
0.5037	-0.4241	11.2169
0.7160	0.3876	11.6763
0.7860	-0.3661	8.3509
0.8016	0.5127	7.3591
2.4401	0.8201	11.3383
-0.5509	2.1308	13.2580
0.3063	-0.7214	9.4384
0.2309	-0.0263	7.1150
0.0024	-0.7998	9.1830
1.6277	1.2383	10.5571
1.0570	0.7352	10.5092
-0.2034	0.1496	7.8777
0.8794	-0.2931	9.5258
1.2149	0.3129	11.5680
0.7513	1.3699	11.0889
-0.1388	-0.6987	10.0157
1.4177	-0.0682	8.3025
1.4255	0.5186	10.1856
1.5045	-0.4104	9.6963
0.4911	1.2580	8.9826
1.0331	-1.8837	9.5228
-0.5868	0.9619	9.6819
0.7131	0.1693	10.4638
2.1906	1.2712	10.2269
-0.0933	1.1527	7.3334
2.7140	-2.3007	13.2161
1.0929	-0.8405	11.4334
-0.5964	0.2016	10.3238
0.1944	0.9266	10.2568
-1.9992	0.4642	6.0054
1.4943	-1.7324	7.9585
0.6467	2.9946	8.1703
-0.7962	-0.6873	7.5984
1.6343	1.3591	9.0490
-0.1561	-1.0283	8.6201
-0.5970	0.1274	8.5190
1.8933	2.1416	6.5689
-0.2955	0.4666	11.2450
2.0112	0.8518	11.1613
0.8267	-1.5595	11.0332
-0.4636	0.5994	7.5463
0.7262	-1.3059	7.0432
-0.2004	1.9663	10.0779
1.6331	-0.2130	8.4347
1.4877	1.1593	6.2859
1.6798	0.3553	10.5212
1.1240	1.9448	9.3009
0.8046	0.6096	8.6297
0.3918	-0.0748	11.3539
1.2736	-0.8973	9.8333
-0.7591	-0.7555	6.6538
0.1836	0.4475	11.4849
1.4680	-0.6766	12.3918
1.8467	0.7244	11.9060
-0.3840	1.3214	12.4097
0.2207	-2.2534	9.8350
1.1103	1.3705	11.4227
1.1803	-0.6413	11.3252
-0.4851	0.7669	7.2789
0.1747	-1.9148	9.4061
2.1894	0.3242	10.6091
0.5683	0.1346	12.1627
1.3148	-0.4343	10.6414
-0.0628	0.9398	7.5176
0.3081	-0.8692	9.4839
1.5571	0.5061	11.3928
0.5922	-0.2542	9.9613
1.8323	0.2925	8.1379
-0.8997	0.5521	10.6049
0.2901	0.2100	8.1021
2.1679	1.9573	7.9866
-0.0532	-0.2345	8.7236
1.4500	0.0754	9.4097
0.1872	1.0247	11.5028
-0.0682	0.1669	10.5439
1.2963	1.6839	8.4095
0.1394	1.7671	8.9048
1.8873	-0.2608	7.9633
0.3135	0.7107	10.8514
0.7866	-0.0269	11.3443
0.7011	1.9872	11.1888
-0.1639	-0.9715	9.0717
0.9015	-0.1047	8.6967
-0.6102	-0.2728	6.1256
0.9392	-1.3986	6.6616
0.7023	3.0066	8.4077
0.4044	0.8405	9.9068
-0.2094	0.6820	11.9485
0.8907	-1.3089	10.6911
0.4504	0.9828	12.0765
0.7896	-0.0700	12.1561
0.0167	-0.9607	9.4450
0.9577	0.4313	10.3728
0.3272	0.4301	9.4779
0.5276	-0.8770	9.6137
0.7741	0.7741	9.7495
1.3292	0.3828	11.3228
1.0349	-0.5988	12.1501
0.9721	-0.3428	9.1549
-0.0275	-0.5468	9.0454
0.7663	0.8333	8.6686
0.6544	0.2046	11.5028
0.7920	-0.1795	10.7778
0.8931	1.2042	9.2380
0.4373	-1.5918	8.8588
1.6169	1.6391	9.1082
1.0319	1.0959	11.1541
1.1826	0.6670	10.2681
-1.1031	0.9499	11.5495
1.3812	-1.9483	9.5126
0.4738	1.3340	10.2879
1.7294	-1.7174	11.1972
0.5575	1.3400	9.1507
-0.0598	0.8447	9.8997
0.2871	0.7160	9.4666
1.4650	0.1741	9.9439
1.6451	-0.7358	10.6983
-0.0239	1.8251	6.8141
0.1107	-0.2375	9.5126
1.2993	1.3154	9.8207
-0.0981	0.5587	11.4855
0.1926	0.4510	11.2444
-0.8148	0.1065	7.8616
-0.0574	-2.3497	7.6905
0.7358	1.5553	9.5659
0.4403	-0.2590	9.7519
1.9304	0.0550	10.3369
-0.0443	1.1282	7.2610
-0.8728	-1.8778	9.8249
-0.0730	0.7208	9.5228
1.4782	-0.8124	9.6849
2.2989	-1.0546	8.5830
0.5276	1.4770	7.7048
-0.3517	-0.5288	9.5473
1.2652	1.8383	10.9280
0.1723	1.5021	7.9358
1.5218	-0.7418	10.1796
1.1838	1.6433	9.2608
1.0014	-0.3021	12.2847
0.5222	0.4205	8.5537
1.0630	-0.3523	10.9692
1.5703	1.5673	9.6592
0.5934	-0.2243	8.9216
1.3759	-0.4564	11.5680
0.4223	1.8012	12.4498
0.3434	-1.7109	8.2115
0.3709	0.5043	9.6436
0.1579	-1.7354	8.2941
0.8381	-0.2034	10.5164
0.7908	1.5978	11.3808
-0.8500	-0.6796	7.5182
1.6702	-0.8387	9.1926
-1.0134	-0.7095	8.0249
0.7436	-1.0582	9.5072
0.2907	2.1565	10.6989
-0.2010	-0.3314	9.3134
1.3143	0.1166	10.1198
0.3117	-1.6265	9.6442
1.5224	-0.1382	9.0358
0.8201	1.0289	8.6823
-0.7448	-0.2471	7.5356
0.3565	-0.2943	8.6793
0.0185	-0.1424	11.6709
0.3302	-1.2825	8.9563
1.5009	1.1743	9.3684
-0.6526	0.9673	8.1529
0.5689	-0.4594	10.1060
0.4947	0.2895	11.1170
0.5946	-1.3597	7.4614
1.2018	0.8961	8.8857
-0.6526	-0.3446	9.0622
0.6939	1.4106	9.5036
0.0281	1.5045	10.2047
0.5067	-0.6479	12.0969
0.6843	0.4056	9.8249
0.5832	-2.1308	8.4807
0.1460	-0.8483	10.1671
0.6724	1.1234	12.6592
0.4457	-1.0134	7.6666
1.0546	-1.2993	10.6331
0.4786	-0.4403	8.7421
0.5396	-0.9290	10.0630
0.9487	0.9834	11.0057
0.4863	-0.6473	9.2147
0.9230	-0.4851	9.8488
0.4618	0.3194	12.9762
0.9709	-1.0265	9.0233
1.3657	1.0851	10.2873
1.6062	-1.4578	9.8207
1.1109	0.5001	9.1363
0.5773	-0.9727	11.1200
0.0359	1.4506	8.3832
0.8070	0.0933	8.3348
-0.5611	1.4590	10.1868
1.2784	-1.8933	10.2873
1.3567	-1.8437	11.5770
0.1956	2.1057	9.4929
1.9136	0.5300	10.6223
-0.2512	0.7645	7.7437
1.3280	-2.5095	7.7383
1.2544	0.5306	9.4642
0.7705	0.8171	10.4985
1.4506	2.1529	13.1963
0.2937	0.8494	11.5196
0.3386	-2.4000	8.3007
0.8076	-0.5629	10.5415
-0.2016	0.0042	9.5144
-0.1083	-0.8088	6.5539
0.5557	2.6339	7.6995
0.4152	-0.7926	8.3090
0.5557	-0.2536	11.5483
-0.2548	0.2112	8.9916
1.0379	0.2560	8.0751
0.8871	1.0361	7.1372
-0.7627	0.9434	8.9617
1.3717	-0.6395	9.5551
1.1264	1.0642	9.7489
1.1019	0.7657	9.4630
1.7599	0.2489	10.4871
0.0377	1.5266	10.5469
2.0267	-0.9422	9.6813
-0.2644	1.9717	9.0466
1.7180	-1.8526	8.6165
1.0546	2.2863	11.6045
-0.8632	1.0582	9.1926
1.2084	0.3882	8.3569
-0.5097	2.4592	7.8813
2.1799	-1.3615	11.0171
1.8706	1.6750	11.9539
-0.1460	0.2824	11.4741
1.7773	0.6927	8.9156
-1.0684	1.8377	9.2554
1.6217	-2.3372	8.2833
1.8742	1.9131	8.5304
-1.1695	0.7932	12.0909
1.8987	1.0146	9.7680
-1.1378	1.6397	11.5232
2.2110	-2.5220	8.4400
0.8883	1.8179	7.0666
0.4756	0.9416	9.3690
1.4680	0.4726	9.2931
0.1777	0.9906	10.6061
1.5625	-2.0100	10.1240
1.6193	1.9077	9.5048
-0.8686	0.7071	11.4945
0.6754	-0.4104	8.1391
-1.1767	-0.4068	11.2223
0.6718	-0.5785	8.0662
1.5182	-0.2590	8.3246
-0.0389	0.0772	9.7435
1.4746	-0.6736	8.5519
0.0132	1.1832	12.2356
0.0024	-0.9876	7.6115
1.3645	1.3346	6.3511
-1.6145	0.8321	9.7316
1.9352	-0.0622	9.7782
-0.9182	0.5025	10.0450
1.4465	0.0036	9.9092
-0.0568	0.3882	9.5988
-0.4391	-0.1603	12.8871
2.0776	-0.3398	8.3940
-0.7884	1.0552	11.5854
1.5350	-1.9286	7.0402
0.9900	1.3101	10.3226
0.5157	0.5892	11.3916
2.2774	-0.4564	8.8163
-0.8249	2.7924	11.0332
1.5470	-1.7127	7.7796
-0.6939	1.5057	12.0257
0.9266	-0.0179	10.4973
0.9039	0.6209	8.4729
-0.1836	0.1077	7.9375
1.1659	0.3260	8.1577
1.8311	0.9158	10.4458
-0.1830	-0.9637	10.4811
1.9041	-1.1150	10.1336
-0.6335	1.1474	8.9916
1.2927	-0.7914	8.4125
0.6473	1.3609	10.8346
0.2411	0.2112	11.1649
1.4985	0.3482	8.9240
-0.2459	0.6347	8.7864
1.3041	-1.6540	6.6472
0.5468	2.0752	10.4943
0.1496	-1.0271	10.2652
1.0995	0.8734	11.2121
-0.1059	-0.3631	9.2243
1.0744	-0.1137	8.6464
0.6849	1.1103	8.6183
-0.5294	0.3404	10.3256
0.4044	0.0120	10.1581
-0.5623	0.9206	11.8893
1.1653	-0.4594	9.1106
0.3230	0.7597	8.3084
0.7017	0.5097	8.9677
0.0024	-0.3141	11.7032
0.5025	-0.7220	11.3419
0.8674	0.5581	10.1850
-0.2489	1.0409	8.7732
-0.2835	-0.2213	9.4462
0.1675	0.6526	9.2231
-0.3685	-0.0885	8.9694
1.2467	-0.3553	9.4014
0.6251	2.3049	9.7698
0.0144	-0.0102	7.7575
0.3272	-0.8309	8.6368
-0.0760	0.5916	11.5268
0.9404	-0.2841	9.6065
0.5832	2.0512	8.7900
-0.1974	0.3679	7.6307
1.0080	-0.5683	7.0115
-0.3840	1.2574	11.1786
1.9394	-1.8819	11.1355
0.7220	1.7820	8.8911
0.5228	-0.2835	7.2406
0.2835	0.9356	8.7978
0.9673	-0.8518	11.6494
0.5127	0.9846	10.6935
0.5426	-0.7047	11.1930
-0.2877	-0.9840	5.8570
1.4728	0.6221	6.3051
-0.7890	1.1252	11.6901
0.0808	-1.2257	11.0877
0.6215	0.7633	9.5066
0.2213	-0.6730	6.2309
0.4062	0.9822	6.2554
0.1017	1.0181	12.6340
0.6508	-1.9567	10.3752
0.5832	1.4231	10.4039
0.5916	-2.8026	8.8456
0.9613	2.9324	7.2353
-0.1573	0.4181	12.7184
0.4845	-1.9513	10.0809
0.9739	3.0975	6.5826
0.9990	0.9141	8.7158
2.7027	0.8686	12.0526
0.1190	1.9926	12.0532
0.5420	-2.2289	8.7565
-0.5868	2.0764	9.3523
0.9499	-0.4899	6.9643
1.5481	2.4419	8.8917
-1.5087	-0.3834	14.0249
1.1982	-2.9545	9.1896
0.2094	2.4915	11.7475
1.0893	-2.3976	8.6315
-0.1501	2.0470	10.8113
-0.2859	-0.2315	8.3581
1.3980	-1.4644	9.5497
2.2780	1.8568	9.1704
0.6401	1.3807	8.2965
-0.0568	1.1832	8.5675
0.6796	-0.0981	8.5052
1.7803	1.3154	11.4610
0.7394	1.3460	12.1884
0.2788	-0.1232	9.9487
2.4143	0.8291	10.1826
-0.6072	0.5210	10.3220
2.4556	-2.4897	7.9681
0.3517	3.0084	10.5272
0.1083	0.0634	7.4973
1.0522	2.1182	7.6989
-0.9188	0.0120	9.6490
3.0784	-2.0327	10.9339
1.9442	0.5067	8.1625
1.0774	0.0556	8.3090
1.3639	-0.1944	9.0873
-1.3352	1.4261	8.0147
3.0580	-1.3585	9.4354
1.0851	1.7204	13.0468
-0.1914	-0.3601	12.0358
1.5763	-0.9416	10.9531
-0.4827	1.9424	8.4807
1.5141	-1.0564	7.0624
1.0798	2.3258	8.3635
-0.3691	0.0497	8.8767
0.7472	0.2512	13.6342
-0.5384	2.0512	9.6167
0.6221	-0.9667	9.1417
1.2682	0.1406	9.1238
-0.2901	0.3589	10.2927
1.5033	-0.8267	9.5653
-0.8608	0.8710	8.7631
0.9260	0.5252	7.9669
1.9926	2.0327	8.3503
0.0167	-0.6694	10.4063
1.6403	-0.8363	9.0711
0.4199	2.1727	9.3936
0.1573	-1.0504	9.6855
1.5852	0.6909	10.7437
-0.9356	1.1037	8.6016
1.8802	-0.1298	8.1409
-0.5970	1.4889	9.4971
1.6421	0.1549	10.9621
0.4020	0.5563	7.9393
-0.0167	0.6311	9.2255
0.6694	-0.7071	9.0562
-0.6508	1.4273	10.0875
1.7856	-0.2656	9.8470
0.7543	0.1370	10.0271
0.8082	-0.3769	9.3661
0.3888	0.1854	10.3351
1.0863	-0.7890	9.2590
1.0510	0.7717	9.9720
1.8311	-0.3781	8.5663
1.3555	0.0700	9.5808
0.3027	0.2883	12.9607
0.4612	-0.3942	10.3441
0.2877	-0.3966	9.5557
1.0744	-0.2788	8.7930
0.6161	0.0455	8.2067
1.9352	0.3188	9.7639
0.2865	2.8361	10.5373
-1.0319	-1.1515	8.7625
-0.0604	1.8102	9.2039
2.1972	-0.0658	10.1443
1.6702	0.8447	11.7726
0.5725	1.2825	11.2055
-0.3763	-0.7860	8.5405
0.0730	1.4512	10.4452
1.9166	-0.7573	8.6380
1.8042	-0.5097	12.5437
0.8249	-0.4899	8.4586
-0.0951	1.1240	8.7391
-0.1693	0.2423	10.4123
1.6768	0.7597	6.8464
1.6457	-0.3559	9.4456
-0.3344	1.2951	9.9595
1.5888	-0.8889	10.4069
1.6696	1.2652	10.8023
1.7719	-0.3673	8.6165
0.6173	0.6580	11.5645
0.0012	-0.6712	12.3272
0.5761	-0.2112	10.0408
1.5799	0.1286	10.2789
2.2881	-0.2812	10.0091
-0.1753	0.8130	11.6823
1.2610	0.2088	9.1352
0.3727	0.7747	9.2590
0.0927	0.5432	9.7914
1.2706	0.9511	8.1643
0.6724	-0.2542	11.5172
0.5228	0.3619	10.3387
1.5721	0.0167	9.4205
0.5019	0.3984	9.7142
1.5033	0.4415	8.8301
-0.3170	1.1803	12.3146
0.1172	-0.1358	11.1774
1.1539	-0.0497	11.7762
0.2255	1.0564	10.4440
1.4052	-0.0897	9.0598
-0.8907	1.9065	10.5649
1.5392	-0.8770	10.7922
-0.4696	0.2189	8.9910
-0.2650	-1.8383	8.4370
0.0431	-0.0766	8.4179
-1.3489	0.4863	11.0739
2.3808	0.4433	8.7206
0.7890	0.4451	10.5822
0.6604	-0.0658	9.5066
-0.7902	-2.0817	9.4899
0.2967	-0.9631	12.4905
1.1192	1.1300	8.8546
0.7795	0.7472	11.0925
-0.0604	-1.1569	9.3768
0.6520	-0.9805	7.6929
-0.2686	1.2796	11.9850
1.3340	0.1609	9.3463
1.0504	1.3190	10.0289
0.9930	-2.0752	11.8588
0.4750	1.0445	9.2057
0.7358	-0.9583	10.2861
1.7426	1.0337	10.3010
0.2004	0.3996	9.3332
0.7741	-1.0134	9.8033
0.7238	1.4447	8.7367
0.6401	0.1783	10.5942
0.5019	0.9212	9.8626
0.7807	0.0078	9.1447
0.2674	-0.7113	11.0213
0.4947	1.2455	9.6382
0.8351	0.2662	11.3150
0.8016	0.3685	10.0414
0.4690	0.2901	10.5038
0.5797	-0.4863	11.6644
0.3248	1.2837	9.0658
-0.5025	-0.2004	8.0297
1.1240	1.7749	9.7920
0.3942	0.3200	10.9806
0.3141	-0.8393	10.2478
0.7083	0.9559	8.1021
0.3135	-0.4702	11.8534
0.4319	-0.4247	9.5940
0.5503	-0.3458	8.3784
-1.3274	0.9302	7.6803
1.8431	-0.5665	8.0955
0.3278	0.7627	11.8540
1.0558	-0.8692	10.8317
-0.1801	-0.0030	9.4648
0.0975	-0.3446	7.6851
1.8287	2.4957	10.3435
0.3075	0.2889	11.0285
0.9135	-0.9727	10.5200
0.3296	0.0497	11.6590
0.3021	-1.0151	11.0315
1.9005	0.8841	10.2939
1.0283	0.3218	11.8851
1.0092	0.1083	9.5186
1.2269	-0.9727	11.3754
-0.1017	-0.9565	11.5908
1.9549	-0.3894	9.7112
-0.5109	1.1019	11.0105
1.5158	-0.8877	9.9308
-1.1814	1.4913	8.9647
0.3793	-0.9410	9.4965
0.5922	-0.2495	8.3886
1.3005	0.3667	10.8233
-0.2847	1.1761	10.8837
0.3960	-1.4901	8.7044
0.6215	0.5581	5.5065
0.8626	-0.0024	9.4731
1.3406	1.4088	12.3074
0.3763	1.1456	13.0067
0.9272	-1.5978	11.2528
1.4010	0.1675	8.6674
0.1304	-0.2255	9.7011
-0.1717	-0.0191	7.4010
1.4315	1.7450	8.1194
0.3876	-0.0987	8.3593
1.1408	-0.8052	10.4003
1.5810	1.3896	11.8959
1.2586	-0.2602	10.4895
-0.0191	0.0706	9.6568
1.2437	-0.6634	8.3258
0.1633	0.7166	12.9254
0.5426	0.0837	8.2259
1.2610	0.1400	7.9926
3.0024	-0.8010	8.5328
-0.1472	1.0690	9.8697
0.9691	-0.6784	8.0039
-0.8327	1.9801	10.3028
1.2562	-1.0690	8.6351
0.6251	-0.2644	10.7748
0.9876	0.1196	9.3254
0.4235	-0.0610	10.0348
1.1450	-1.0187	8.4921
1.4441	1.1755	9.1770
-0.3093	1.0122	11.1714
1.6821	-0.1747	9.2285
0.0622	0.1166	10.5314
0.6550	-1.4614	8.5477
0.5013	1.6708	10.3220
1.4076	0.5324	11.5082
0.4774	-0.3410	9.0113
1.0253	-0.6604	11.8301
1.0026	-0.0987	10.0043
0.0084	1.7994	8.4317
1.1527	-1.4823	9.5533
0.6963	0.0054	9.4929
0.5635	0.2459	10.4614
1.5158	0.0754	10.0438
-0.0197	-0.4110	10.4662
0.1872	1.8233	11.7092
1.4566	-0.9876	10.8885
0.0760	0.4738	12.2261
0.4810	0.3823	9.7651
-0.2429	0.6287	8.8881
0.9876	-0.1340	9.1776
1.0098	1.0893	11.4299
0.9099	-0.0790	13.4996
1.3280	-0.0287	12.2512
0.1687	-0.1759	9.5353
0.8393	-0.5174	6.7627
0.7137	0.4929	8.8115
-0.9511	-0.2142	9.2309
1.8347	0.3111	10.4650
1.1115	1.8670	9.5204
1.3178	-1.4297	10.0498
0.3673	0.5198	11.5142
-0.4140	-0.4540	8.4598
0.7059	-1.0385	8.7667
0.3858	1.4189	8.7224
1.9908	-1.2149	9.1106
0.9033	1.1055	9.7543
0.4152	0.2363	8.6303
0.3105	0.9601	8.3509
0.4373	0.4283	9.5808
0.6467	0.0227	8.3150
0.8130	-0.3805	9.7106
0.6526	1.5290	10.9244
0.4122	0.8536	7.3842
0.8913	1.7761	9.6173
0.6682	0.6664	8.8097
2.4760	0.0179	12.3995
0.5115	0.3003	9.9134
0.6490	0.3499	8.7691
0.3021	0.3858	9.2709
1.2293	-0.2447	7.9609
1.5374	0.2554	10.7210
0.5497	1.0917	10.0103
0.5551	-0.2716	8.7284
0.0275	0.8243	9.5473
1.3693	0.4792	7.6917
0.8728	0.0066	10.8658
0.2728	0.0760	8.8630
1.1623	0.2674	9.1585
-0.4217	0.2477	10.1850
1.7252	1.7587	9.0203
0.5091	0.2740	11.4795
0.3601	-1.3878	10.8646
0.3069	-0.9511	11.8073
1.2203	0.8297	11.4813
1.0175	1.5051	8.3019
0.4409	-0.1549	9.2757
1.2347	0.0903	9.0370
1.5691	-0.1346	12.0957
-0.0766	0.5073	11.7481
0.3882	1.8419	9.7202
-0.1872	0.7095	9.6664
1.2203	1.1599	9.5030
0.8913	-0.6855	10.8233
0.4971	-1.0612	12.0867
1.0816	1.5362	9.3170
-0.3559	-1.1055	9.3361
1.5523	1.9866	8.6590
0.3811	0.6389	8.4179
-0.0867	-2.7374	10.1521
1.3920	1.6397	8.1158
-0.4606	0.5264	7.8765
1.1928	-0.3164	9.2841
0.2518	-0.1346	10.4362
1.0720	-2.2289	12.5479
2.1954	-0.1370	8.5824
-1.2700	0.0748	7.2514
0.5007	0.0341	8.2773
-0.0820	-0.3404	10.0630
0.3577	-0.4140	12.6992
0.7466	0.7262	10.2406
0.6209	0.0365	6.4612
-0.2919	0.2524	6.3134
0.0317	0.8207	10.2819
0.0598	-1.7246	9.0137
0.5013	1.1043	9.3475
0.2626	0.9422	10.7569
1.4776	-1.1085	9.4133
0.4211	0.5133	10.2592
0.3170	-0.7495	8.3449
1.2203	1.0391	7.6887
0.1591	1.0588	10.7718
0.8806	0.2297	10.8502
1.0576	0.3254	10.5666
1.0833	0.9141	9.8344
0.9936	0.3476	10.7694
0.7603	0.2100	8.6709
1.8831	-1.8323	10.1054
0.1083	2.4179	11.3162
0.5922	-0.9870	8.9617
0.0808	0.7244	8.8797
0.9284	0.3033	7.8622
1.4500	0.1029	10.1018
1.2479	1.0373	8.9377
1.4429	0.6592	10.9944
0.8638	0.7908	11.2923
0.8315	0.1998	9.6676
0.9553	-1.3184	8.9497
0.5563	1.7713	7.6851
1.3316	-1.1779	9.3547
0.5103	2.0106	11.0045
1.8191	1.0953	8.6614
1.2473	0.3840	9.2494
-0.6371	1.2233	8.8378
0.9523	-0.8411	9.1651
-0.1298	1.0845	10.8843
0.9111	-0.5791	9.6664
0.8183	-0.1651	9.9308
1.5733	-0.6275	8.2037
1.7605	0.3129	9.2841
-0.4588	-0.6006	11.1864
0.0395	-0.3757	8.3689
1.3663	0.9236	9.4684
1.1139	0.3631	10.0151
1.5978	0.8195	9.9918
-0.3727	-1.8120	9.8697
1.3938	0.1777	7.9058
1.1689	-0.3912	11.0721
0.1310	1.3412	9.9439
1.9944	-0.0939	8.1613
0.6461	0.1137	9.1992
1.1240	-0.1101	8.2026
-0.9709	1.4201	7.3310
0.5659	-1.0050	8.1816
0.2333	0.8692	10.8520
1.8078	-1.5535	12.5790
0.1657	1.1067	8.4287
-0.1011	0.7513	9.8524
0.3703	0.0144	5.4771
0.5940	0.1424	10.0205
1.3531	-1.4393	10.1832
0.7687	1.9824	6.4169
0.9398	1.0181	5.8450
1.8604	2.1452	9.4689
-0.3386	-0.8052	9.1842
0.7232	-0.2925	9.6095
0.4588	1.1031	10.6360
1.2120	0.0311	6.7627
2.6518	2.1900	9.0101
-0.7938	-1.1892	10.2293
2.3121	-1.0959	9.5970
0.5671	1.6325	9.9607
0.8847	0.2889	9.5407
1.8359	0.5695	9.1369
-0.7801	0.5791	8.6153
1.5601	0.7615	10.1838
0.2387	0.7166	10.2340
1.3418	0.0167	11.2157
1.1127	-0.7316	8.0578
-0.2136	0.9380	7.3214
0.5785	1.3418	9.4935
-0.0269	0.1166	11.0733
1.3077	-0.6802	12.2901
0.8764	-0.6173	9.2027
0.2824	1.0397	7.2891
0.5803	0.9290	5.9102
0.7137	1.7438	9.5581
0.2058	-0.7741	10.4057
1.8867	-0.6042	11.9114
1.3346	0.7819	9.3876
0.2315	-0.1107	8.9066
0.1232	-1.1617	8.0303
0.6371	1.6594	9.5318
2.2684	-0.8686	11.6661
0.1376	-0.5456	9.1190
1.8293	0.0634	8.0057
0.7992	-0.8692	9.6460
-0.2453	0.8279	7.1695
-0.3176	0.7155	11.9557
1.4453	0.2255	9.5222
1.0648	0.1286	10.3609
1.2347	0.1980	11.8205
-0.1190	0.5145	8.1451
0.5312	-0.1561	9.1992
1.5523	1.0863	8.5615
-0.3775	0.2638	11.6871
1.0702	-1.2873	11.1104
0.1513	2.6022	9.9673
0.8901	-1.1450	7.4536
1.5194	1.5553	7.5469
0.6078	0.5934	9.8620
-0.1412	-1.7473	8.0309
1.3729	0.2925	10.3776
0.6957	1.0002	8.2480
1.8281	0.2339	7.7545
0.2812	-0.6837	10.1718
1.9687	-2.1763	9.6430
0.3655	1.6540	11.6715
-0.5677	-1.2251	9.9230
3.0454	0.5791	11.1481
-0.7172	1.6080	8.4161
2.2415	-0.8465	8.3701
0.4469	2.7140	12.1800
0.2417	-0.8979	8.2737
2.7188	0.4337	10.8454
-0.2052	3.2046	8.0931
0.4277	0.2608	7.4620
1.6056	1.5302	11.7756
1.4817	-1.4291	9.1106
0.7669	1.6804	10.5481
-0.0293	0.2142	8.9312
-0.1663	0.4301	10.0749
1.3238	1.0786	9.4498
0.7609	-1.1450	10.4416
0.3314	-1.4740	11.6500
0.9547	-0.3733	7.4410
0.7783	1.3059	12.1465
0.7968	-0.2554	9.7417
-0.4522	0.4134	9.4827
1.2903	-1.6977	7.2424
0.9410	2.0393	9.2482
-0.1184	-1.0989	12.6466
-0.2518	0.0401	7.7838
0.8835	-0.7884	8.8965
1.1438	0.1454	8.4418
1.6552	1.0032	10.0247
-0.0479	-0.2590	9.0562
0.6921	-0.6305	7.5906
1.4177	0.7448	9.0281
-0.2315	0.9206	12.2578
0.8351	-1.0223	9.3954
0.4935	2.0758	9.4378
1.2419	-1.3047	7.3142
-0.1436	1.1456	10.8508
0.1352	-0.3709	9.9882
0.4235	1.2084	9.9678
0.2399	2.5202	10.3262
0.8584	-1.1707	9.5994
0.7585	0.4822	10.8711
0.5330	0.1083	11.1972
0.0712	1.2401	9.4648
0.4983	-1.5487	9.8428
1.4482	-0.9254	9.3224
1.2610	0.8752	9.1220
0.7771	0.3422	9.0951
-0.1412	-0.0556	11.7302
1.2831	-0.2859	10.2652
0.6437	0.5826	10.5714
1.1480	0.4780	9.5994
0.0730	1.1635	10.3836
0.7609	-1.6474	8.6578
1.3095	0.0993	8.7685
-0.2949	-0.6915	9.8715
-0.0102	0.1155	8.6416
0.2339	0.6712	9.1453
0.7836	1.6558	8.5220
1.3543	-0.0269	10.9764
-0.8746	0.0437	11.5848
1.6122	-1.3687	9.9595
-0.0832	0.7226	10.8149
1.1444	0.5480	8.9653
0.5426	0.3930	10.0510
-0.3846	-0.0173	9.5850
1.8257	-0.8871	10.0348
0.1663	2.4126	11.4562
1.4297	-1.7964	8.8498
0.6317	1.0827	10.4865
-0.5809	0.6215	9.4229
1.4297	-0.3410	8.8678
0.0969	2.4556	9.9535
1.1527	0.2997	8.7320
0.3775	0.7962	13.3973
0.1316	-1.0151	7.6809
0.7813	1.6708	8.8337
0.0861	1.6247	8.1182
1.7808	-0.1669	10.2903
-1.1019	0.5276	9.1363
0.9404	-2.8510	6.8201
-0.1196	1.7976	7.9567
0.0873	1.8682	10.9507
2.0997	0.0419	9.7160
-0.3739	0.1346	11.1553
1.3131	-0.1567	5.9078
0.8327	2.2678	10.4416
0.3416	0.7699	9.7429
2.0189	1.2550	11.4897
-0.2309	0.7663	9.8512
1.1599	-0.9900	8.6602
0.4744	-0.2566	9.6017
0.6018	-0.3984	10.3064
1.3406	2.2851	9.7938
0.0873	0.7525	8.1978
0.4546	0.6514	9.2578
0.4726	0.6072	9.2386
1.0600	0.0305	10.2837
0.5773	1.5218	11.5932
-0.0233	0.1567	9.7657
1.3370	1.4524	9.2799
0.3996	1.5105	10.3716
1.3154	-0.2500	8.0997
0.1196	-0.4905	10.6683
0.5707	0.1591	7.7156
0.0843	1.5152	7.9908
-0.0473	-0.2560	9.0705
1.2897	-0.0263	9.3882
1.4321	-0.0030	13.3142
2.8241	-1.5188	9.7351
-0.1406	0.1675	11.3312
0.0646	-0.3039	8.7702
1.3214	0.0999	10.3890
0.9296	-0.4247	10.2029
1.6349	0.3978	8.0680
0.1143	-0.6676	11.5662
2.0177	0.6921	9.1974
2.1828	1.0762	9.6113
0.6341	-1.6145	10.3914
1.0020	0.4600	8.1463
-0.5420	0.9817	11.0512
1.9107	0.2489	10.1659
0.4014	2.1129	10.0713
1.9460	-1.2377	9.6855
2.0004	1.3005	10.2723
0.6742	0.4086	8.5764
1.4925	-0.0556	8.2875
-0.4391	1.6558	9.2470
1.2598	-1.1910	9.9565
0.9248	1.3256	8.5687
1.0205	-1.0038	8.4107
0.6383	0.3900	9.7011
0.4313	1.2305	9.1328
1.2437	-0.1693	10.5637
0.8728	1.8185	9.8004
0.5743	-0.1711	9.6664
-0.4152	-0.0957	11.9006
0.3188	-0.8136	7.7246
1.5679	0.4289	10.5798
1.4692	1.2927	8.3210
0.7783	1.2479	8.7810
0.7292	-1.2090	9.7178
0.2207	0.3117	9.7112
1.2790	0.1968	9.8907
0.4857	-0.0191	8.1009
0.5892	0.1735	10.7024
1.3286	0.0933	10.2059
1.4076	0.7890	9.2494
1.8646	-0.5916	10.6905
0.4056	1.2490	10.0899
0.8812	-0.0359	10.0055
0.2853	0.5898	10.5032
0.2853	0.2088	9.2644
0.8955	-0.1083	11.3635
2.2104	0.6251	9.2255
-0.1543	0.5300	10.5655
0.5168	-0.6909	8.4460
1.9029	0.0054	9.8733
0.3260	0.9278	11.6452
0.1986	0.5503	7.3573
-0.4690	-1.2586	9.7627
0.8381	0.4403	8.6895
0.8459	-0.3111	8.2893
1.9202	0.1478	9.0173
-0.0311	0.7920	9.2327
0.5964	-1.5858	9.2303
-0.1131	0.1370	9.5252
1.1803	0.4355	9.2727
1.1426	2.2654	9.9254
1.2957	-0.8171	9.0035
1.6947	0.0006	9.0125
2.0393	0.4235	7.7497
-0.3745	-0.0526	8.2594
0.7442	0.3422	9.2081
-0.0658	0.5527	9.4875
1.4919	-0.1807	10.6145
1.1390	0.3900	9.9296
0.9571	-0.6837	9.9960
1.3220	1.6385	10.4512
0.4433	-0.1759	8.9754
0.8231	0.5133	9.5916
0.4816	-0.0024	9.0382
0.4839	-0.2046	9.8452
1.4058	0.3057	8.7858
0.2028	1.5894	8.8672
0.7316	0.7101	8.0081
0.7926	1.2305	8.8199
0.4409	-0.3386	7.8394
0.8901	0.6556	9.4701
0.3458	1.0451	7.2616
0.6933	-0.2393	8.5782
1.0056	1.4255	8.4771
1.9190	-1.0134	9.2620
1.1761	0.4427	10.5571
-0.1220	0.8979	10.1144
0.5994	-0.4588	9.7573
1.5757	1.1228	9.0831
0.7352	1.3848	10.8520
0.3374	0.3613	9.6257
1.0469	0.8901	6.2069
1.4028	1.6140	10.5236
1.2742	1.0289	10.7892
0.7400	-0.2913	9.4977
1.9256	-1.2496	9.4719
0.1238	2.3426	9.3607
1.0223	-0.8219	8.0488
1.1814	1.0630	8.7553
-0.3954	-0.1256	8.6811
3.0927	0.0179	10.2095
-0.5874	1.5888	11.9282
0.7657	-1.8138	7.8000
0.9888	0.2985	12.2590
-0.2177	-0.6431	9.4354
1.5386	0.9212	9.0969
0.1196	0.5773	8.6506
1.2401	0.2213	7.7276
0.3188	0.7059	10.0624
-0.4863	-0.2237	8.0835
0.8291	0.1268	8.5597
0.3703	0.5264	9.4666
0.9308	0.0927	6.4899
0.5480	-0.4905	9.0759
0.5121	-0.8249	10.0151
1.5858	1.3938	10.6713
-0.3159	-0.9326	11.0153
0.7495	-1.0086	7.9136
0.7777	1.2772	7.6534
0.9799	0.9805	6.9009
0.9763	0.1968	10.5116
-0.0060	0.9793	8.7122
1.2185	0.3452	9.7399
0.7543	1.4740	10.6271
0.2536	0.3440	9.6711
1.5822	-0.1603	11.0488
0.9482	0.8267	8.9228
0.2195	-0.8961	9.5120
1.1653	0.9649	8.7188
-0.3218	1.2568	8.8145
1.4608	1.0199	9.5443
0.1113	1.1210	10.8987
1.1503	-2.8821	9.0394
1.0756	2.9174	10.3770
0.8339	0.0179	9.3469
1.2766	1.0074	9.7489
0.0233	2.0686	10.6217
0.4307	-1.4459	10.3268
1.1928	0.6873	7.6797
0.0257	0.5162	8.1015
0.9888	0.7597	7.8448
-0.0855	0.3338	8.9611
0.2237	-1.9226	10.1892
0.7310	1.2526	8.5274
0.6885	-0.6873	9.5443
1.5212	-0.2387	9.3499
0.3356	0.7029	9.6622
1.9298	-0.8076	9.8835
1.4859	0.6676	12.5551
0.5222	-1.4321	11.6159
1.6899	0.1412	10.6444
-1.2120	0.1322	9.6245
-0.0784	0.6036	8.8438
1.6564	1.3801	9.9122
1.2353	-0.6407	10.2424
1.5296	-0.1190	10.1120
-0.3009	-1.3687	9.5342
0.2895	0.7137	11.1529
1.3418	2.1595	9.9457
0.9918	-1.5487	9.7310
1.3190	-0.2321	8.3653
0.4893	-0.0054	9.1591
0.2381	-0.1896	11.4693
0.1376	-0.8674	9.2213
1.2610	1.5984	10.3322
1.1216	-0.2010	9.5772
-0.3099	0.1131	9.9415
0.1615	0.7531	9.0526
1.4524	0.5689	9.0945
-0.3182	1.8143	9.3355
0.5276	-0.6837	8.9348
-0.4845	0.7890	8.6117
1.0624	-0.1107	9.4301
0.8471	0.3523	10.7629
0.2620	-0.3840	8.5202
1.7456	0.2812	9.8165
0.4008	-0.6299	9.0747
0.1986	-1.5757	10.8203
1.7013	0.7962	9.3942
-0.3924	0.0407	10.6665
1.5051	0.4588	9.9038
0.2704	1.6433	9.4480
0.8016	-0.7083	9.1352
0.6018	1.5416	9.3391
0.6975	-0.6502	10.1694
0.1244	0.4911	10.6839
-0.2351	1.1049	11.0261
0.9529	-1.6361	9.3912
1.4518	2.9258	9.4558
0.0586	-0.8913	6.2452
0.2800	-1.1127	8.9844
-0.6353	-1.3154	13.1886
-0.0066	-0.5486	10.6235
1.6451	0.9733	7.6881
-1.9262	0.4445	6.5665
1.7192	0.2524	8.3036
0.4283	0.5791	12.0556
-0.2991	-1.4656	11.9288
0.9942	0.2219	8.9653
-0.9948	1.9801	6.1926
2.0542	-0.4869	8.6273
0.6963	-0.4098	12.0783
1.2760	-2.2367	11.8600
0.3350	1.0319	9.7698
-0.8303	0.6024	10.4847
0.3882	-1.7868	8.8857
1.1402	1.7761	9.6879
-0.4415	-0.0538	10.3399
0.3918	0.1274	9.6598
-0.2614	0.3936	8.4095
1.6140	-0.1089	8.7284
0.3517	-0.1902	10.9674
0.4181	-1.8305	10.9639
1.3932	1.5338	9.5563
0.2189	-0.4193	9.2985
1.1306	1.1641	9.8147
0.3876	2.0494	11.8414
1.2628	-2.4855	9.7992
0.6191	1.9531	10.4033
0.7286	-0.5360	9.2991
0.4546	0.6144	10.7006
0.1029	0.1107	11.0650
0.7723	-2.2636	8.4466
1.8269	2.3761	9.7728
1.2879	-2.7344	6.5671
-0.1202	2.0692	10.8580
1.0642	0.7388	12.8757
-0.0323	-0.0682	11.6039
1.2173	-0.3757	7.2592
0.3583	2.5531	10.1461
0.1226	1.1306	7.5864
1.3675	-1.0827	11.3623
-0.2572	-0.9194	11.4478
1.6104	-0.2931	9.1064
0.3422	0.3254	10.4781
0.8070	-0.7316	8.6267
-0.1860	1.4165	10.5152
1.0702	-0.2118	10.2873
0.7370	-0.4331	10.5768
0.4857	-1.2114	11.0356
0.6467	0.6257	9.7196
0.8004	-0.7107	9.9936
-1.7330	-0.9147	10.2454
1.2359	0.7872	6.1292
0.0096	-0.6437	9.7184
0.3625	0.1256	10.5678
-0.0251	1.1324	9.6705
-0.7262	-1.3543	8.2486
1.7695	1.5834	8.5770
0.7436	-0.7974	11.7397
0.6167	-0.1825	12.5150
0.2070	-1.2161	9.5772
-0.6712	-0.6610	11.9587
1.3860	0.1699	8.5094
0.3392	-0.9314	11.2857
1.8796	-2.6028	9.1734
0.1280	1.3292	9.2195
-0.5162	-1.2616	8.5758
0.7801	1.9495	6.9128
0.1376	-0.2160	8.8498
1.1264	1.4387	8.8313
0.3129	-0.0544	10.7030
1.4776	-1.8407	11.6937
1.7174	0.9834	7.3064
0.1220	-0.1842	10.8107
0.0353	1.5087	9.1411
0.0162	1.0116	8.8031
1.1587	-2.9138	10.5044
0.7448	0.8243	8.7230
0.2052	-0.0233	9.2979
1.1234	-0.1334	8.9796
0.9081	0.1119	9.5587
1.0146	-1.1922	10.4691
1.9723	0.3745	12.2967
-0.0963	-1.0427	11.3892
0.9595	-0.7424	9.8015
-0.1825	1.7252	9.7956
1.1306	-2.7709	8.5944
1.5882	0.5940	10.0636
0.8477	0.1585	8.9485
0.7549	0.0640	9.8518
-0.5115	-0.3350	9.2494
-0.0191	-1.0696	8.7242
2.6877	3.1394	6.9380
0.1501	-0.5797	10.9339
1.7994	0.0700	9.4031
1.2933	1.1665	11.2103
0.4540	-1.1707	10.3531
1.4100	0.7561	8.5058
-1.0582	1.3292	10.6719
0.9045	-0.8626	7.6139
0.1555	0.4504	9.2225
1.7677	-0.1107	9.9541
2.0429	0.7310	8.9659
-0.5025	-1.3555	9.1208
1.0181	0.0377	7.6815
1.3657	0.8542	10.9322
0.3823	-1.6863	11.5471
1.3555	0.7777	8.8923
-1.0911	-0.5491	8.6177
2.2110	-0.6843	8.0715
0.8877	1.5152	11.2671
1.1934	-2.0279	9.2404
1.0594	0.8806	9.2578
-0.5025	-0.6963	8.8516
0.1161	0.4074	9.0819
1.5757	-0.7950	11.7828
0.9482	-2.3533	10.7084
-0.6383	2.3312	8.2175
0.0263	1.2550	11.1110
2.1984	1.0469	11.8019
0.2632	-0.1908	8.1499
0.2100	0.4744	10.1772
0.5880	-0.7741	7.0390
0.1310	1.3316	11.1242
1.8939	-1.1019	10.5367
0.4612	0.8578	9.3643
1.5595	0.3105	10.9944
0.9487	0.8297	10.1449
0.2255	1.3047	12.2602
0.8632	-1.1174	10.4446
0.3775	-0.0658	9.1298
1.7354	-2.3049	9.9577
0.2710	2.6554	10.0109
1.9466	-0.1854	10.1246
1.2484	0.8148	10.3854
0.5946	0.2626	9.4283
-0.1663	-0.1113	9.3517
1.9842	0.9009	10.8496
-0.3793	-0.3308	9.7525
1.2096	0.6969	9.7226
0.5264	-0.3153	8.5693
0.3027	0.3135	9.1728
2.0943	1.2825	8.7942
0.8058	-0.2100	8.8223
1.4614	-1.3830	11.0907
-0.8339	1.4800	11.5399
1.1318	-0.8602	10.1850
0.7220	-0.2399	10.4673
0.8333	0.9733	10.2257
0.8267	0.0179	8.9838
0.6831	0.7035	7.2634
-0.2937	0.1178	8.3641
0.5151	0.5970	9.1154
1.8197	-0.5910	11.1164
1.5260	-1.0498	8.5734
0.8806	0.4953	7.9393
1.8742	-0.7071	9.3128
1.2927	1.1156	8.9066
1.0379	-1.2993	10.4656
0.8417	-0.4241	10.5212
0.5904	1.0253	12.1064
0.0640	-0.4104	11.6703
1.8993	0.4498	10.7670
2.3982	-0.1448	9.9409
1.7384	0.7525	6.2536
0.7089	-0.1801	10.7479
0.0963	2.1434	10.2346
1.6265	0.3601	10.6259
0.4265	1.1581	9.0173
0.6473	1.2993	8.2217
0.6443	-0.9045	9.0646
1.9113	1.5577	9.0891
0.1143	0.3661	9.4139
1.7444	1.2837	9.2709
0.6640	1.8311	8.7714
1.2664	-0.0066	9.4402
0.6036	1.1605	9.4941
0.3218	0.3535	9.1184
1.0128	0.6843	11.3102
0.9751	-0.4373	9.5144
1.0977	1.3268	9.5629
0.5474	0.7011	8.6709
-0.0090	0.0299	8.5926
1.5966	1.0343	10.4721
0.9739	0.3817	9.8416
0.9111	0.7633	11.4705
0.9721	0.8818	11.0015
2.0638	0.3458	10.7946
1.1617	0.3386	10.9980
0.4146	0.4630	6.9942
0.3673	0.7478	9.4528
0.0526	1.5864	9.1310
1.7031	0.6191	9.7980
1.5787	-0.4361	11.7379
0.8895	2.0094	10.4608
-0.2471	-1.0026	6.4522
0.8925	1.2718	9.4929
1.5188	-1.2939	11.6655
0.3595	2.1745	13.9028
-1.5314	-1.4022	10.6552
-0.8877	-1.7300	10.7910
2.4449	2.5310	7.3974
1.1186	-1.9184	9.8985
0.8602	1.5619	11.1613
-0.1274	0.3224	10.6689
-0.7047	-1.1456	9.3756
1.5781	1.9890	6.6125
0.0293	-0.0287	9.9338
0.2949	0.0592	9.5892
-0.3565	0.2237	10.1389
-0.3009	-0.1454	9.6173
1.6857	-0.3482	6.9529
0.2835	-0.2453	11.0303
1.4734	-0.9589	11.2426
0.4367	0.1388	10.7479
-0.1543	-0.7286	12.3642
0.8734	-0.1735	11.9312
-0.4522	-0.2309	13.3286
0.3996	-0.3482	9.2877
0.2865	1.4136	11.1320
-1.9382	-2.1368	10.0743
1.9998	1.0122	6.1370
1.2006	-1.0576	9.8291
0.8662	-0.1172	9.4349
-0.0233	-0.5731	11.7487
-0.3535	-0.0485	12.7579
1.9585	0.0556	9.3619
-0.7537	-0.3081	11.0159
1.6899	-2.1559	9.0358
0.6855	1.5015	11.2402
0.3583	-0.3709	8.5728
0.7669	1.6869	9.3397
0.9751	1.0337	10.3465
1.9202	0.5761	9.4995
-0.0066	1.5194	10.0265
0.8106	-1.1396	8.8175
0.2668	1.2293	9.3003
1.9202	0.4481	11.3114
0.8650	-0.0407	8.2325
0.6120	1.8365	9.2727
0.9493	0.1376	10.5565
1.2263	-0.2871	9.7710
1.3884	-0.2524	13.1706
0.8823	0.2231	10.3172
0.1226	-0.0903	9.7651
0.1424	0.1741	8.7242
1.1366	0.5527	8.4035
2.0267	-0.1448	10.8951
0.6197	1.5876	9.3457
0.1651	-0.5821	8.9880
1.6792	0.8010	10.9136
0.6449	0.4349	11.2713
1.5547	0.4158	12.1136
-0.8985	1.2209	7.5553
0.3290	-0.7986	11.0225
2.2403	2.2738	10.5164
0.3966	1.3454	7.2945
1.6678	0.3284	6.9403
0.0784	0.5743	12.4594
1.1228	-1.5224	12.2649
1.3011	0.7795	10.4327
0.3601	-0.3972	7.2963
1.0403	1.7043	10.3220
-0.4385	0.2512	8.6129
1.0774	-0.4839	8.8103
1.4303	1.2215	10.3040
0.5821	0.7424	6.0544
1.9765	1.7808	8.2438
1.1414	0.9368	11.3551
1.5793	-2.1804	12.1567
1.8114	0.6215	10.1844
-1.9801	1.2030	7.5475
-0.3649	1.2419	7.3597
1.2155	-1.2461	10.7330
1.7707	-0.0455	8.8767
0.6712	1.2329	11.7409
-0.7759	0.9015	12.5539
1.8813	-0.8913	9.8207
2.1009	-0.3039	14.2348
0.4337	1.2233	9.0077
0.3679	1.9549	10.0091
0.5210	-0.1675	10.1449
1.1456	1.6181	8.5005
2.3216	-0.2728	9.5874
-0.7149	-0.1561	10.6630
0.8979	0.3523	9.3302
0.4923	0.1687	11.0063
0.6682	-1.4225	8.7009
-0.0329	1.6385	10.8538
1.1832	-2.1170	9.6197
0.5665	2.2205	10.6289
0.6873	-0.3799	8.0051
0.8847	-0.1902	8.0805
0.4606	1.0744	11.1421
-0.2315	-0.2734	10.1784
1.8251	1.5380	11.6057
0.2477	-0.5886	10.7270
0.9589	0.7041	9.6041
0.4116	0.2680	9.4965
1.3454	-0.3069	9.5270
0.2483	2.8678	8.9790
1.9651	-0.3356	9.7471
0.9942	0.3912	8.3838
1.2646	0.5838	10.8801
1.9059	0.6156	12.4671
0.3924	0.1914	10.4321
1.2670	0.6377	11.7762
0.2405	-0.4385	8.8779
-1.4082	0.4516	9.3086
1.5930	0.3805	7.9184
0.7280	1.3525	8.1972
1.6612	0.2590	8.3354
-0.2004	0.4744	9.0891
2.1009	-1.5278	10.4817
0.6108	1.6798	12.0879
0.5037	0.9805	8.2815
-0.3320	0.3571	9.1352
1.6929	1.1043	9.4031
-0.5085	0.6831	11.0488
2.4927	-1.5039	6.8440
-0.1280	-0.1663	8.5645
1.1988	0.2381	9.4043
1.3208	-0.3984	13.9459
-0.0012	-1.6690	10.0450
0.6431	1.0050	8.6458
-0.0233	-0.0209	8.9258
1.1503	0.5151	9.2542
1.2173	3.1340	11.5782
0.0975	-1.6056	8.8313
0.8471	0.6179	8.4616
-0.1597	1.1390	9.6969
0.7160	-0.4463	9.3176
0.3739	0.5773	10.8311
-1.1468	-1.5374	10.2717
1.0415	1.7515	8.5950
0.6712	0.1615	11.6051
1.8981	-0.4409	7.2640
1.1186	-0.0030	10.1479
0.3033	2.2786	9.3523
0.0275	0.1310	7.3573
0.7310	0.5826	12.2141
1.0833	-0.3332	10.3286
-1.7587	1.3065	8.9509
2.1553	-1.6265	8.1308
-0.1490	-0.2937	11.3228
2.2163	0.8453	13.0055
-1.3454	0.8865	10.9872
0.5378	-1.0917	8.1792
0.9105	0.9129	8.7367
-0.0084	1.3573	10.1108
2.0841	-0.0185	10.5200
0.3075	2.3485	9.3050
1.5368	-2.1775	7.3250
1.6899	2.8857	8.7996
-0.0814	-0.5432	5.9366
-0.5713	-0.0748	9.7956
0.9164	-1.0744	8.5316
-0.7795	-1.0851	6.4983
1.7791	2.3617	7.3130
1.0289	0.4714	8.5878
0.5653	-0.1591	11.6207
0.5659	0.3793	9.6245
-0.8435	-0.0227	8.4789
1.6756	-1.3932	8.3581
0.2177	2.4682	11.5154
0.9787	-2.6159	9.5078
-0.4534	1.6062	10.5080
0.3218	-1.5888	10.0097
1.0181	1.9388	9.4767
-0.7519	1.3119	10.2526
0.2189	-0.5635	9.3972
1.4291	0.7059	11.9670
0.8943	-1.4542	9.3367
1.0528	1.0863	9.0155
0.4301	-0.1956	8.2731
0.0736	1.3890	10.4081
2.1063	1.2359	10.5649
-1.1892	-0.4588	11.1439
1.3250	0.5300	9.6029
0.2602	1.7874	11.8911
1.2915	0.0377	9.6287
0.6269	0.0688	10.3268
0.7089	-1.4195	9.5186
1.0295	0.5850	9.8237
-0.3452	-0.0520	11.1074
0.9876	-1.2646	9.3391
-0.3565	1.6492	9.0179
0.8297	0.0443	6.7818
0.0562	1.8455	9.5186
2.1787	0.7190	10.1808
1.7934	-0.8602	10.0103
0.2495	0.7406	9.8327
0.8770	0.7759	9.2219
1.1701	0.9828	11.4957
0.8351	0.1537	11.6536
1.3771	-0.0018	8.4047
-0.7029	0.2818	6.9529
0.0772	0.2489	7.7443
1.6564	2.2223	7.0743
1.3501	0.0413	11.5531
1.0295	0.8387	9.7950
0.0628	1.0080	10.3477
0.7890	0.4439	9.8339
-0.6467	0.4576	10.3549
2.0782	0.1286	10.1940
0.8070	1.0768	7.5493
1.0690	0.3260	10.2723
1.7689	1.0014	10.5960
0.3661	0.3404	8.9467
1.3968	-0.1131	9.3774
-0.5815	0.8321	8.4759
1.6839	-0.1071	8.7607
0.9571	0.7047	10.2622
0.0616	0.8871	10.5056
1.3675	0.1848	9.0221
0.0999	1.0469	8.2713
1.8957	-1.2209	8.9359
0.4510	2.4712	9.8805
0.6736	0.4522	8.2666
0.5563	1.7240	10.3387
0.7681	0.3428	9.2004
-0.0897	-0.2991	8.4765
1.5093	0.6305	7.4931
0.3482	0.8818	9.1411
0.2453	0.5456	8.9204
0.7783	-0.8124	10.5996
-0.7005	0.5737	7.7509
0.4917	-0.6150	8.3581
0.2925	1.5631	9.8309
1.6696	0.0742	8.1553
-1.2419	1.9119	9.6861
0.0221	0.1735	9.1579
0.7992	1.1300	10.6707
0.9392	-0.3488	11.1649
0.8626	-0.1968	8.5358
-0.2339	-0.5677	8.5429
0.4289	-0.1059	9.2811
0.7920	1.2084	10.0618
1.1222	-0.4026	10.0654
-0.4750	1.0911	9.5988
-0.1083	0.7884	10.9363
-0.5360	-0.7956	10.8783
0.5168	0.8321	10.2287
1.1133	-0.3733	10.2418
0.6730	-0.0287	8.3952
1.4895	-1.2090	12.1656
1.8496	-0.4696	9.6358
-0.8560	0.4522	10.7617
-0.2285	-0.5521	8.5034
0.2471	-0.6006	10.6857
1.0397	0.6664	10.2412
1.1360	0.4540	9.6047
0.7663	-0.8375	10.6839
0.5689	0.7813	11.0386
0.6132	-0.5288	11.4077
0.6377	1.5099	7.8777
-0.4738	-2.4610	7.4434
1.2951	1.7533	12.7872
1.6564	0.7944	12.9008
1.3071	-0.8925	10.8568
1.2018	-0.4618	8.5040
1.3005	2.0453	9.8141
0.7041	1.1545	8.3186
0.3912	-0.7059	9.9780
1.1067	0.8650	8.7140
-1.4590	1.5392	8.2205
1.0798	-3.4271	8.1344
0.6694	1.5643	9.9750
2.6680	-1.1198	11.5339
1.3280	0.5737	9.2620
-1.7222	0.5019	10.4404
1.9854	0.7226	9.9888
-0.2381	0.3027	10.2155
1.5541	-0.2979	11.9808
1.3418	0.4211	9.8183
-0.5874	-0.6221	8.7260
0.2483	2.0327	8.9485
0.9326	-0.5850	8.9216
0.1149	0.6209	9.8823
0.5557	-1.3717	7.4931
1.0134	2.3982	12.3074
0.6814	0.0461	10.9579
1.6337	-0.5785	11.8486
1.4841	0.5791	9.4642
-0.7609	-0.4911	5.8809
0.3541	1.5141	12.5000
1.4889	2.0752	11.1200
0.5049	-1.6253	10.7952
1.7826	0.1992	9.4749
0.1842	0.6395	8.2235
0.4522	0.4032	6.8686
0.1663	2.2821	8.0901
0.8740	-0.7400	9.1256
1.4297	0.1819	12.1357
-0.4720	0.5438	8.2755
0.8740	-0.2345	8.4269
1.1288	1.2933	9.8512
0.1741	-0.5617	9.4211
2.5136	0.6927	7.9980
-0.6191	0.3320	7.2712
1.4381	-0.3864	7.5601
2.0931	1.6911	11.6518
0.3458	0.0263	10.6833
2.0070	-0.1334	8.5298
0.9147	-0.7065	11.3461
0.5593	-1.1037	12.3056
1.2353	0.7316	9.6400
1.3011	0.7567	10.9375
1.7611	-0.9715	11.8947
0.5390	0.7244	10.0438
0.0395	-1.8676	10.0360
0.8351	1.8126	8.9246
-0.4726	-0.2937	7.2077
1.8221	1.8203	9.7346
0.6461	-0.0556	11.0536
1.0008	-1.2269	8.1547
1.5194	-0.1825	10.2185
0.0742	-1.1557	10.3453
0.3236	1.1767	9.6305
0.2363	-1.1330	9.1471
-0.1825	-0.3745	9.3367
0.4056	0.7603	9.5766
0.9194	-0.3224	8.3186
0.0646	1.0181	7.9878
0.4289	-0.6742	10.2867
-0.2800	0.8082	10.5559
1.1826	0.4487	7.7467
0.0574	-1.4584	8.7978
0.8829	-1.3597	9.5342
0.7765	0.7035	9.5156
0.9709	-1.0899	8.6937
0.6161	-0.9332	10.4315
-0.3081	0.2530	10.9680
1.3938	0.0048	11.1236
-0.9894	2.0782	8.9808
1.2712	-3.2441	8.2313
0.6096	1.3747	10.1312
0.6060	-0.0359	12.4019
1.8191	0.0245	8.7864
0.9224	0.5641	11.7385
-0.3541	0.0407	8.9036
0.9775	-0.6233	9.3960
0.5934	0.9170	11.8612
0.7400	0.7376	10.4620
0.5342	0.4726	9.3990
0.8542	-0.9930	7.7778
0.7896	0.4331	9.5671
0.4158	1.5547	13.2801
1.6469	-0.4457	10.9519
-0.1681	1.3729	8.6662
0.4349	-1.3525	6.5653
0.4283	0.2566	9.6107
1.7629	0.2261	11.7894
1.1809	-0.1585	9.8039
-0.4140	0.4618	9.8584
1.0080	-1.3854	8.2977
0.4247	2.5065	8.5531
1.8478	-1.0229	9.1914
0.0371	1.5380	8.3060
0.9966	-0.2453	12.1501
-0.8345	1.6654	12.5377
0.6084	-1.0074	11.9210
0.0335	-0.0712	11.7290
1.0845	-0.7149	7.4632
-1.8981	1.1156	12.5413
0.7663	0.4158	7.3681
0.6921	-0.1842	9.5336
1.4632	-0.3793	12.3493
0.4714	0.1143	10.0540
-0.7890	-0.8058	12.0340
0.0317	-1.2383	8.7882
0.6461	0.6825	9.0502
2.1870	-1.0349	6.8710
-0.3087	1.7587	9.3469
1.0708	-2.6799	11.3581
-0.0975	0.4528	10.3812
0.1466	-0.5450	9.4582
1.2754	1.5828	8.8965
-1.2473	1.1509	6.6682
1.1886	-3.0885	9.6777
1.0151	3.0688	12.8231
-1.4010	0.7783	6.5180
1.9274	1.6385	7.6666
0.6120	-0.4271	8.1427
1.8449	-0.3667	10.6331
1.0157	1.2742	11.2450
-1.3998	1.6151	8.3892
1.6397	0.0479	8.0739
-0.8488	1.0229	8.9778
1.5996	-3.0173	9.9966
1.0678	2.1661	8.5435
1.3549	0.7125	8.2295
-0.3051	2.4102	12.3206
0.0431	0.4349	5.0596
1.0403	-2.8809	8.6841
0.1525	2.3826	8.4610
1.1749	-0.9858	10.0977
1.3507	1.9053	8.5501
0.2865	-0.4630	6.2255
1.9531	-2.4730	11.4777
1.8347	-0.0179	11.1900
-1.0600	0.1753	9.0927
0.4134	-1.7563	7.1186
-0.8608	-0.3751	11.4669
1.7904	-0.8010	9.5784
2.1027	1.1581	7.8012
0.0951	1.1288	11.1607
0.5216	2.6393	8.4035
-1.6169	0.8955	8.0518
1.9160	-1.1456	11.6350
2.3204	2.5968	9.7052
-1.1019	-0.6323	8.4664
2.4466	0.2136	10.9896
0.3924	-1.1079	13.5176
1.6002	-2.3210	8.3635
1.2132	0.3775	10.1557
-0.0814	0.2985	10.7258
1.5846	1.5493	8.6919
-1.3388	-0.5635	12.1902
1.3884	-1.8030	8.0799
0.4265	1.1617	9.1196
1.4106	1.7121	11.5148
0.6688	0.5420	8.6847
-0.7131	-0.0167	8.0715
1.4010	0.1729	9.4426
0.8560	-0.1549	12.0933
2.1481	-2.2672	11.3455
0.5880	1.6582	8.5627
-0.2489	-1.7067	9.2267
1.1288	-0.4863	10.4793
2.2044	1.0062	8.4664
0.5755	-1.5254	8.8223
1.1814	1.5882	9.0448
1.0092	0.3410	8.9521
-0.9828	1.0744	8.6333
1.1378	-1.1432	8.9419
0.9876	1.3143	8.6811
1.7653	-1.3268	8.8396
-0.0287	1.2377	9.3924
0.4373	-1.6116	8.4161
0.3553	1.5176	9.3092
0.3757	0.4391	11.0159
0.0365	-0.2865	10.2622
1.3101	0.6760	9.9170
0.9356	-3.1089	8.2576
1.8807	2.9348	9.3894
0.5061	-1.2574	8.9796
1.0929	0.3272	9.2392
0.7992	-0.1848	11.3413
0.2560	-1.5966	9.3236
1.8167	0.5743	8.4771
-0.0532	1.6295	6.6897
1.4572	-0.0401	9.7675
0.9643	2.1302	14.0147
0.0574	-1.5386	12.2990
0.3846	1.2179	7.9459
0.0796	-2.1099	8.5076
0.5240	0.8435	9.2877
0.3936	-1.0552	8.6201
0.2907	0.8979	9.2943
0.7543	0.0574	9.1698
-1.5870	0.1370	10.1964
1.2855	-0.4774	9.8889
-0.1615	0.7717	9.2458
-0.4259	1.0732	9.4259
1.8724	-0.4564	9.6921
-0.1244	2.0566	13.8933
2.0201	-0.8650	8.9084
-0.0419	1.7007	10.5708
0.9763	-0.3649	7.9088
0.5665	1.5751	9.4797
1.3454	-0.3302	11.7954
1.3627	-0.4409	11.5836
1.5290	-0.6951	12.7710
1.3531	0.8255	8.4376
0.2165	0.7519	9.9864
0.0586	0.7184	10.0827
-0.1932	1.9418	9.7710
0.7669	-0.3494	5.5316
-0.3344	-0.6945	8.0632
0.0652	1.1785	8.4861
1.3292	-0.4205	11.2576
1.7665	1.5146	6.2381
-0.2441	0.3057	10.2975
0.9715	0.6640	7.0235
-0.6299	2.3354	8.1086
1.3280	-1.3035	10.1599
0.6634	0.7430	8.8701
0.4349	-0.3338	8.6446
0.4163	0.6413	7.4285
-0.4301	1.4500	9.6269
2.3031	0.4851	9.8811
0.9476	0.4953	10.3070
1.8885	-0.3876	9.7226
-1.1468	1.7838	10.9387
0.3302	0.8106	10.3633
1.1049	0.1854	11.8265
1.2508	1.8736	9.0329
0.6365	-0.1250	7.4973
1.1761	0.9571	9.1011
0.9368	1.1085	8.5334
0.7693	0.4247	10.7120
0.0443	0.3123	8.4155
0.0102	0.1460	9.7322
1.6349	-0.6814	9.0472
1.4524	1.2407	8.9395
0.3182	-2.3904	8.7535
-0.2279	2.5047	7.3860
1.3968	2.8122	9.8279
-0.3619	-1.0732	10.4374
0.9924	0.5384	6.7160
1.4907	1.1216	11.7308
1.5960	1.3669	9.1070
-0.1908	1.2496	10.9680
1.1085	-0.8423	7.6672
0.4391	-0.5222	6.1944
1.3795	0.5809	12.3762
-0.4385	2.0453	9.0209
0.2255	-0.5049	6.8931
2.1469	0.3912	10.4362
0.1627	3.2219	9.9260
2.1224	-0.7226	9.6801
-0.6138	2.9641	7.1976
0.4893	-0.4684	7.2239
2.4813	1.4536	9.3960
0.0329	2.7206	10.5302
0.1663	0.4696	7.8688
0.9625	-0.9541	8.0189
-3.4385	-0.3541	12.2775
2.8762	0.5222	5.1733
-0.4056	-1.2407	9.0933
0.7489	-0.1143	10.6498
0.5288	0.0718	11.5214
-0.3936	-3.2393	10.3459
-0.0514	2.8253	7.3740
-1.3244	-2.7511	6.0789
2.7739	0.4869	9.1298
-1.1426	-0.1244	13.2454
3.5778	0.4098	7.9591
-1.7007	2.3067	5.6297
-0.1292	-0.9356	5.3132
0.4098	1.7282	8.8672
-0.7274	0.0963	11.0775
1.6959	-2.0686	8.9533
-0.5151	2.3689	12.4151
-0.0682	-1.6187	11.9880
1.5314	1.1779	10.5553
1.9513	-1.3370	11.6703
0.5683	-0.7095	9.4085
0.1184	1.1761	12.1615
0.7208	0.0054	11.4998
0.8345	0.4367	9.8147
0.8985	0.6616	11.8911
-0.1083	-0.5701	7.2909
-2.3814	0.1388	10.8885
1.6169	-0.5749	8.2384
1.5517	0.8973	6.4337
1.9148	-0.6419	10.4303
-0.1035	2.0165	6.9427
0.0455	-0.0162	12.4271
2.5262	-2.4981	9.7860
1.8867	1.6690	9.1812
-0.2572	-0.0957	11.5435
-0.1621	0.6413	7.2933
0.2973	1.8078	7.1378
1.8359	0.1908	10.5002
0.6311	1.0905	10.2059
0.6138	0.3153	8.9204
-0.0084	0.1286	7.8957
-0.5198	-1.0331	8.9096
1.0481	0.4822	10.4937
0.2339	-0.5204	10.1563
-0.2812	-0.7370	11.2462
1.3765	-0.5575	10.3100
0.1561	0.1986	12.1244
1.0869	-1.7342	14.0889
1.6558	1.6648	11.5830
0.2752	-0.1382	9.7238
0.9727	0.3691	8.9401
0.9452	-0.7741	7.2909
0.4026	1.3687	11.4981
0.7406	0.1777	9.0568
-0.4863	0.4134	7.9710
1.7874	0.6257	8.2361
0.5653	0.1896	9.5018
1.3693	1.7444	10.0779
0.9081	-0.9278	9.0556
0.0263	1.0451	8.5423
-0.3769	-0.1101	7.6588
-0.3966	0.9099	6.4163
1.7868	0.2584	11.7625
2.7236	1.6301	11.5435
-0.3494	0.7950	10.1300
1.0678	0.3284	10.4709
0.8728	1.1420	6.1202
1.1814	1.1497	11.0003
1.0636	-0.4588	4.3675
-0.9781	-0.6455	11.6273
2.4939	-0.4014	11.5501
0.8177	1.1216	11.1523
1.9244	-0.4618	8.9497
0.7238	0.0233	8.4209
-0.0784	0.7005	8.6985
0.0574	0.1394	10.5661
-0.9547	0.0365	10.2287
0.5061	0.5402	8.5130
1.5511	1.2646	9.3152
0.3434	-1.2371	10.3926
1.8945	0.3069	11.0554
-0.9763	-0.1567	9.4241
0.5856	-0.5324	7.1784
1.1109	1.0439	10.6301
0.5773	-1.8389	11.9862
1.9603	0.4193	8.5884
-0.8895	0.9906	10.4303
0.7346	-1.2449	9.0837
0.3093	1.1360	8.8085
-0.1178	-0.9434	7.8466
0.3523	1.4776	8.8031
1.3974	-0.0592	12.8183
1.4770	1.0427	9.9906
-0.1926	0.4875	10.3788
1.0140	-0.5557	7.3782
1.3591	2.3521	7.5918
0.1603	-0.4289	11.0943
0.3380	1.2927	8.6895
-0.3499	0.5336	7.6355
1.1061	-0.4367	11.2067
1.8706	1.0020	8.7529
0.0700	1.6349	11.8001
0.8357	-1.1324	7.4542
-1.1635	1.7623	11.8779
1.6140	-0.9930	10.0462
2.0800	0.2979	9.8267
1.1133	-0.4211	11.5770
-1.3908	0.1902	8.4287
1.2149	0.5234	8.8713
1.6588	1.7144	9.3798
-0.3984	-1.6516	8.5124
1.7384	0.8680	9.4995
-0.2788	-0.0191	7.0941
1.4357	-0.3488	8.1685
0.7687	0.1627	8.7768
