count	accelx	accely	accelz	roll	pitch	heading
count	accelx	accely	accelz	roll	pitch	heading
count	accelx	accely	accelz	roll	pitch	heading
count	accelx	accely	accelz	roll	pitch	heading
1	-0.0860	0.0380	0.0300	-0.1430	-0.4470	-0.5590
2	-0.0810	0.0320	0.0320	-0.1420	-0.4510	-0.5230
3	-0.0810	0.0310	0.0320	-0.1390	-0.4530	-0.4990
4	-0.0820	0.0300	0.0300	-0.1370	-0.4480	-0.4730
5	-0.0810	0.0310	0.0300	-0.1400	-0.4470	-0.4840
6	-0.0820	0.0310	0.0290	-0.1370	-0.4490	-0.4860
7	-0.0800	0.0310	0.0290	-0.1370	-0.4490	-0.4860
8	-0.0800	0.0330	0.0290	-0.1340	-0.4450	-0.4750
9	-0.0810	0.0340	0.0300	-0.1370	-0.4460	-0.5030
10	-0.0790	0.0340	0.0310	-0.1380	-0.4430	-0.5220
11	-0.0790	0.0340	0.0310	-0.1400	-0.4440	-0.5510
12	-0.0800	0.0330	0.0310	-0.1400	-0.4450	-0.5560
13	-0.0800	0.0320	0.0320	-0.1390	-0.4410	-0.4970
14	-0.0800	0.0310	0.0330	-0.1340	-0.4410	-0.4930
15	-0.0800	0.0310	0.0330	-0.1390	-0.4350	-0.4850
16	-0.0780	0.0310	0.0310	-0.1380	-0.4350	-0.4860
17	-0.0780	0.0320	0.0320	-0.1420	-0.4340	-0.4950
18	-0.0770	0.0340	0.0320	-0.1460	-0.4300	-0.5300
19	-0.0780	0.0330	0.0290	-0.1490	-0.4290	-0.5110
20	-0.0780	0.0320	0.0290	-0.1490	-0.4310	-0.5210
21	-0.0770	0.0330	0.0310	-0.1500	-0.4300	-0.5160
22	-0.0780	0.0330	0.0290	-0.1530	-0.4300	-0.4660
23	-0.0770	0.0330	0.0290	-0.1540	-0.4240	-0.4510
24	-0.0770	0.0330	0.0290	-0.1590	-0.4240	-0.4480
25	-0.0770	0.0330	0.0310	-0.1550	-0.4210	-0.4720
26	-0.0750	0.0340	0.0320	-0.1580	-0.4220	-0.4500
27	-0.0770	0.0340	0.0320	-0.1550	-0.4230	-0.4640
28	-0.0770	0.0340	0.0320	-0.1560	-0.4230	-0.4880
29	-0.0770	0.0330	0.0320	-0.1500	-0.4280	-0.4910
30	-0.0780	0.0340	0.0310	-0.1520	-0.4280	-0.4800
31	-0.0770	0.0340	0.0320	-0.1520	-0.4270	-0.5010
32	-0.0760	0.0350	0.0320	-0.1550	-0.4240	-0.4850
33	-0.0760	0.0350	0.0310	-0.1560	-0.4240	-0.5090
34	-0.0770	0.0350	0.0310	-0.1510	-0.4270	-0.5320
35	-0.0770	0.0350	0.0300	-0.1510	-0.4240	-0.5660
36	-0.0780	0.0350	0.0310	-0.1510	-0.4220	-0.6050
37	-0.0780	0.0350	0.0310	-0.1520	-0.4270	-0.6280
38	-0.0770	0.0350	0.0300	-0.1520	-0.4280	-0.6460
39	-0.0770	0.0360	0.0270	-0.1590	-0.4290	-0.6480
40	-0.0770	0.0350	0.0280	-0.1550	-0.4270	-0.6380
41	-0.0770	0.0350	0.0300	-0.1480	-0.4300	-0.6630
42	-0.0750	0.0360	0.0280	-0.1500	-0.4240	-0.6900
43	-0.0760	0.0340	0.0290	-0.1470	-0.4280	-0.6640
44	-0.0760	0.0320	0.0290	-0.1400	-0.4280	-0.6250
45	-0.0780	0.0310	0.0310	-0.1400	-0.4320	-0.6080
46	-0.0770	0.0320	0.0310	-0.1440	-0.4290	-0.6360
47	-0.0770	0.0320	0.0310	-0.1500	-0.4290	-0.6350
48	-0.0750	0.0330	0.0310	-0.1500	-0.4280	-0.6400
49	-0.0760	0.0330	0.0310	-0.1460	-0.4280	-0.6270
50	-0.0760	0.0320	0.0320	-0.1390	-0.4350	-0.6620
count	accelx	accely	accelz	roll	pitch	heading
1	-0.0770	0.0250	-0.1440	-0.4330	-0.2750	-0.5560
2	-0.0770	0.0320	0.0320	-0.1430	-0.4310	-0.2680
3	-0.0770	0.0310	0.0320	-0.1390	-0.4300	-0.3080
4	-0.0770	0.0310	0.0320	-0.1390	-0.4300	-0.3080
5	-0.0770	0.0310	0.0290	-0.1340	-0.4330	-0.3680
6	-0.0760	0.0300	0.0310	-0.1340	-0.4270	-0.3790
7	-0.0750	0.0290	0.0310	-0.1290	-0.4260	-0.3830
8	-0.0740	0.0280	0.0320	-0.1270	-0.4190	-0.4060
9	-0.0730	0.0290	0.0320	-0.1260	-0.4200	-0.4030
10	-0.0740	0.0290	0.0310	-0.1280	-0.4260	-0.4170
11	-0.0740	0.0300	0.0320	-0.1300	-0.4260	-0.4310
12	-0.0750	0.0310	0.0320	-0.1270	-0.4280	-0.4300
13	-0.0760	0.0310	0.0290	-0.1250	-0.4300	-0.4430
14	-0.0770	0.0310	0.0290	-0.1260	-0.4320	-0.4540
15	-0.0770	0.0300	0.0300	-0.1250	-0.4340	-0.4590
16	-0.0780	0.0300	0.0300	-0.1310	-0.4350	-0.5060
17	-0.0790	0.0300	0.0310	-0.1300	-0.4370	-0.4890
18	-0.0790	0.0300	0.0310	-0.1300	-0.4350	-0.4700
19	-0.0780	0.0300	0.0320	-0.1290	-0.4330	-0.4460
20	-0.0770	0.0300	0.0300	-0.1240	-0.4300	-0.4520
21	-0.0770	0.0310	0.0290	-0.1320	-0.4310	-0.4820
22	-0.0770	0.0320	0.0280	-0.1390	-0.4270	-0.4950
23	-0.0770	0.0310	0.0290	-0.1360	-0.4270	-0.5080
24	-0.0770	0.0320	0.0290	-0.1370	-0.4290	-0.5000
25	-0.0790	0.0310	0.0290	-0.1300	-0.4310	-0.4980
26	-0.0790	0.0300	0.0310	-0.1260	-0.4350	-0.5220
27	-0.0780	0.0300	0.0300	-0.1270	-0.4350	-0.5370
28	-0.0780	0.0310	0.0310	-0.1270	-0.4350	-0.5260
29	-0.0760	0.0310	0.0300	-0.1290	-0.4300	-0.5300
30	-0.0760	0.0310	0.0310	-0.1320	-0.4300	-0.4890
31	-0.0770	0.0300	0.0290	-0.1310	-0.4320	-0.4560
32	-0.0770	0.0300	0.0300	-0.1340	-0.4280	-0.4340
33	-0.0760	0.0290	0.0310	-0.1280	-0.4250	-0.4210
34	-0.0760	0.0290	0.0300	-0.1280	-0.4260	-0.4260
35	-0.0770	0.0310	0.0310	-0.1340	-0.4260	-0.4110
36	-0.0770	0.0320	0.0310	-0.1320	-0.4280	-0.4220
37	-0.0780	0.0310	0.0320	-0.1290	-0.4280	-0.4390
38	-0.0770	0.0300	0.0320	-0.1310	-0.4270	-0.4570
39	-0.0770	0.0300	0.0330	-0.1260	-0.4310	-0.4390
40	-0.0780	0.0290	0.0320	-0.1260	-0.4310	-0.4510
41	-0.0790	0.0300	0.0320	-0.1240	-0.4310	-0.4240
42	-0.0780	0.0290	0.0310	-0.1240	-0.4310	-0.4190
43	-0.0770	0.0290	0.0310	-0.1210	-0.4250	-0.4040
44	-0.0770	0.0280	0.0310	-0.1170	-0.4240	-0.4080
45	-0.0770	0.0270	0.0320	-0.1140	-0.4260	-0.4150
46	-0.0770	0.0270	0.0310	-0.1150	-0.4260	-0.4160
47	-0.0780	0.0270	0.0310	-0.1150	-0.4300	-0.4310
48	-0.0780	0.0270	0.0310	-0.1160	-0.4330	-0.4290
49	-0.0790	0.0270	0.0290	-0.1160	-0.4300	-0.4220
50	-0.0800	0.0270	0.0280	-0.1160	-0.4320	-0.3930
51	-0.0780	0.0270	0.0300	-0.1150	-0.4270	-0.4010
52	-0.0760	0.0270	0.0320	-0.1160	-0.4270	-0.4010
53	-0.0760	0.0260	0.0300	-0.1200	-0.4300	-0.4200
54	-0.0760	0.0270	0.0310	-0.1200	-0.4270	-0.4880
55	-0.0740	0.0260	0.0320	-0.1140	-0.4280	-0.5160
56	-0.0740	0.0270	0.0320	-0.1170	-0.4240	-0.5070
57	-0.0750	0.0280	0.0320	-0.1180	-0.4240	-0.5040
58	-0.0750	0.0300	0.0330	-0.1200	-0.4230	-0.5030
59	-0.0750	0.0290	0.0320	-0.1180	-0.4190	-0.4890
60	-0.0740	0.0280	0.0320	-0.1140	-0.4150	-0.5320
61	-0.0730	0.0270	0.0310	-0.1120	-0.4150	-0.5600
62	-0.0720	0.0280	0.0310	-0.1160	-0.4110	-0.5690
63	-0.0740	0.0280	0.0310	-0.1150	-0.4120	-0.5900
64	-0.0730	0.0290	0.0320	-0.1190	-0.4100	-0.6070
65	-0.0710	0.0270	0.0310	-0.1160	-0.4100	-0.6120
66	-0.0710	0.0270	0.0300	-0.1170	-0.4080	-0.6090
67	-0.0720	0.0270	0.0290	-0.1160	-0.4080	-0.6290
68	-0.0750	0.0270	0.0290	-0.1130	-0.4140	-0.6290
69	-0.0750	0.0270	0.0290	-0.1120	-0.4150	-0.6580
70	-0.0730	0.0270	0.0300	-0.1110	-0.4150	-0.6470
71	-0.0730	0.0260	0.0310	-0.1080	-0.4140	-0.6330
72	-0.0730	0.0260	0.0290	-0.1060	-0.4140	-0.6710
73	-0.0740	0.0260	0.0290	-0.1070	-0.4170	-0.6880
74	-0.0730	0.0250	0.0280	-0.1040	-0.4180	-0.7120
75	-0.0740	0.0240	0.0290	-0.1060	-0.4200	-0.6810
76	-0.0730	0.0250	0.0300	-0.1070	-0.4160	-0.6500
77	-0.0720	0.0250	0.0310	-0.1090	-0.4140	-0.6930
78	-0.0730	0.0250	0.0310	-0.1100	-0.4170	-0.7130
79	-0.0720	0.0250	0.0310	-0.1050	-0.4150	-0.7220
80	-0.0720	0.0260	0.0310	-0.1060	-0.4150	-0.7330
81	-0.0740	0.0260	0.0310	-0.1050	-0.4160	-0.7250
82	-0.0750	0.0240	0.0310	-0.1020	-0.4190	-0.7110
83	-0.0740	0.0260	0.0320	-0.1050	-0.4240	-0.7000
84	-0.0750	0.0270	0.0310	-0.1070	-0.4230	-0.7000
85	-0.0750	0.0260	0.0290	-0.1080	-0.4180	-0.6750
86	-0.0740	0.0260	0.0300	-0.1090	-0.4180	-0.6420
87	-0.0730	0.0250	0.0290	-0.1080	-0.4160	-0.6330
88	-0.0740	0.0250	0.0290	-0.1060	-0.4170	-0.6450
89	-0.0740	0.0260	0.0320	-0.1090	-0.4160	-0.6330
90	-0.0730	0.0250	0.0320	-0.1110	-0.4100	-0.6560
91	-0.0730	0.0250	0.0320	-0.1110	-0.4100	-0.6560
92	-0.0720	0.0260	0.0320	-0.1110	-0.4150	-0.6860
93	-0.0720	0.0260	0.0320	-0.1110	-0.4150	-0.6860
94	-0.0730	0.0280	0.0290	-0.1160	-0.4130	-0.6840
95	-0.0730	0.0280	0.0290	-0.1160	-0.4130	-0.6840
96	-0.0730	0.0280	0.0300	-0.1130	-0.4180	-0.6830
97	-0.0730	0.0280	0.0300	-0.1130	-0.4180	-0.6830
98	-0.0720	0.0270	0.0320	-0.1150	-0.4130	-0.6520
99	-0.0720	0.0260	0.0320	-0.1140	-0.4100	-0.6420
100	-0.0730	0.0260	0.0320	-0.1160	-0.4100	-0.6360
101	-0.0730	0.0260	0.0320	-0.1160	-0.4100	-0.6360
102	-0.0730	0.0270	0.0320	-0.1130	-0.4100	-0.6470
103	-0.0730	0.0270	0.0320	-0.1130	-0.4100	-0.6470
104	-0.0730	0.0280	0.0310	-0.1100	-0.4100	-0.6390
105	-0.0730	0.0280	0.0310	-0.1100	-0.4100	-0.6390
106	-0.0740	0.0280	0.0310	-0.1070	-0.4110	-0.6370
107	-0.0760	0.0270	0.0320	-0.1030	-0.4180	-0.6410
108	-0.0760	0.0270	0.0310	-0.1020	-0.4180	-0.6640
109	-0.0750	0.0250	0.0290	-0.0980	-0.4160	-0.6780
110	-0.0750	0.0250	0.0290	-0.0980	-0.4160	-0.6780
111	-0.0740	0.0240	0.0290	-0.0980	-0.4150	-0.7150
112	-0.0740	0.0240	-2.5880	-0.4150	-0.7290	-0.3560
113	-0.0740	0.0250	0.0320	-0.1020	-0.4170	-0.7200
114	-0.0740	0.0260	0.0320	-0.1050	-0.4160	-0.7540
115	-0.0740	0.0250	0.0310	-0.1060	-0.4140	-0.7870
116	-0.0740	0.0250	0.0290	-0.1050	-0.4160	-0.8190
117	-0.0730	0.0240	0.0310	-0.1000	-0.4170	-0.8240
118	-0.0730	0.0240	0.0290	-0.1000	-0.4190	-0.8790
119	-0.0730	0.0240	0.0310	-0.1000	-0.4220	-0.8500
120	-0.0730	0.0250	0.0310	-0.0980	-0.4180	-0.8550
121	-0.0760	0.0240	0.0290	-0.0940	-0.4210	-0.8570
122	-0.0750	0.0220	0.0290	-0.0870	-0.4180	-0.8620
123	-0.0750	0.0220	0.0310	-0.0850	-0.4170	-0.8560
124	-0.0730	0.0220	0.0310	-0.0870	-0.4140	-0.8800
125	-0.0740	0.0210	0.0310	-0.0860	-0.4130	-0.8490
126	-0.0730	0.0210	0.0310	-0.0850	-0.4110	-0.8570
127	-0.0730	0.0220	0.0320	-0.0860	-0.4140	-0.8860
128	-0.0730	0.0210	0.0310	-0.0810	-0.4160	-0.8880
129	-0.0720	0.0230	0.0300	-0.0850	-0.4110	-0.9010
130	-0.0720	0.0230	0.0320	-0.0860	-0.4080	-0.8970
131	-0.0730	0.0220	0.0310	-0.0870	-0.4140	-0.9040
132	-0.0740	0.0230	0.0300	-0.0860	-0.4190	-0.9230
133	-0.0740	0.0230	0.0310	-0.0860	-0.4230	-0.9960
134	-0.0750	0.0230	0.0310	-0.0870	-0.4230	-1.0110
135	-0.0760	0.0230	0.0320	-0.0860	-0.4270	-1.0210
136	-0.0750	0.0240	0.0310	-0.0950	-0.4260	-1.0270
137	-0.0750	0.0240	0.0300	-0.0970	-0.4230	-1.0410
138	-0.0760	0.0230	0.0310	-0.0990	-0.4270	-1.0670
139	-0.0760	0.0250	0.0320	-0.1020	-0.4260	-1.0800
140	-0.0760	0.0250	0.0290	-0.1020	-0.4260	-1.0440
141	-0.0760	0.0250	0.0280	-0.0990	-0.4250	-1.0300
142	-0.0760	0.0250	0.0290	-0.1010	-0.4310	-1.0260
143	-0.0770	0.0260	0.0290	-0.1060	-0.4340	-0.9840
144	-0.0780	0.0260	0.0310	-0.1050	-0.4360	-1.0030
145	-0.0770	0.0270	0.0320	-0.1030	-0.4320	-1.0180
146	-0.0770	0.0270	0.0310	-0.1030	-0.4350	-1.0170
147	-0.0780	0.0270	0.0320	-0.0990	-0.4420	-1.0090
148	-0.0770	0.0260	0.0310	-0.0960	-0.4440	-1.0230
149	-0.0770	0.0260	0.0310	-0.0950	-0.4420	-1.0400
150	-0.0760	0.0250	0.0310	-0.0940	-0.4390	-0.9990
151	-0.0770	0.0260	0.0320	-0.0950	-0.4420	-0.9280
152	-0.0780	0.0270	0.0330	-0.1030	-0.4460	-0.9070
153	-0.0780	0.0270	0.0320	-0.1020	-0.4480	-0.8810
154	-0.0770	0.0260	0.0310	-0.1000	-0.4500	-0.8830
155	-0.0770	0.0260	0.0300	-0.0990	-0.4490	-0.8480
156	-0.0770	0.0260	0.0290	-0.0980	-0.4450	-0.8510
157	-0.0770	0.0250	0.0310	-0.0990	-0.4420	-0.8320
158	-0.0780	0.0260	0.0320	-0.0950	-0.4460	-0.8040
159	-0.0790	0.0240	0.0290	-0.0930	-0.4460	-0.8010
160	-0.0780	0.0240	0.0310	-0.0910	-0.4440	-0.7980
161	-0.0790	0.0240	0.0330	-0.0920	-0.4480	-0.7830
162	-0.0790	0.0240	0.0320	-0.0900	-0.4480	-0.7500
163	-0.0780	0.0240	0.0320	-0.0910	-0.4450	-0.7280
164	-0.0780	0.0240	0.0320	-0.0960	-0.4430	-0.7640
165	-0.0780	0.0240	0.0320	-0.0960	-0.4460	-0.7490
166	-0.0800	0.0220	0.0320	-0.0910	-0.4490	-0.7430
167	-0.0790	0.0230	0.0320	-0.0860	-0.4450	-0.7180
168	-0.0780	0.0230	0.0290	-0.0860	-0.4460	-0.7060
169	-0.0790	0.0220	0.0300	-0.0810	-0.4490	-0.6800
170	-0.0810	0.0230	0.0320	-0.0800	-0.4480	-0.6790
171	-0.0810	0.0230	0.0310	-0.0840	-0.4460	-0.6940
172	-0.0820	0.0230	0.0310	-0.0840	-0.4490	-0.6920
173	-0.0810	0.0240	0.0310	-0.0880	-0.4510	-0.7040
174	-0.0800	0.0230	0.0320	-0.0880	-0.4500	-0.7390
175	-0.0810	0.0220	0.0300	-0.0840	-0.4530	-0.7590
176	-0.0800	0.0220	0.0310	-0.0830	-0.4510	-0.7390
177	-0.0790	0.0230	0.0320	-0.0820	-0.4520	-0.7340
178	-0.0790	0.0220	0.0330	-0.0810	-0.4530	-0.7390
179	-0.0800	0.0210	0.0320	-0.0840	-0.4540	-0.7430
180	-0.0800	0.0220	0.0300	-0.0830	-0.4550	-0.7440
181	-0.0810	0.0220	0.0280	-0.0850	-0.4570	-0.7490
182	-0.0790	0.0220	0.0290	-0.0850	-0.4580	-0.7310
183	-0.0790	0.0230	0.0310	-0.0840	-0.4580	-0.7070
184	-0.0800	0.0210	0.0300	-0.0800	-0.4590	-0.7020
185	-0.0820	0.0210	0.0290	-0.0820	-0.4630	-0.7070
186	-0.0820	0.0210	0.0290	-0.0820	-0.4630	-0.7400
187	-0.0830	0.0210	0.0300	-0.0820	-0.4640	-0.7350
188	-0.0820	0.0220	0.0290	-0.0840	-0.4600	-0.7130
189	-0.0800	0.0240	0.0300	-0.0890	-0.4550	-0.6830
190	-0.0810	0.0230	0.0310	-0.0920	-0.4540	-0.6480
191	-0.0800	0.0240	0.0290	-0.0980	-0.4550	-0.6340
192	-0.0810	0.0240	0.0320	-0.0970	-0.4580	-0.6590
193	-0.0820	0.0250	0.0310	-0.1040	-0.4600	-0.6560
194	-0.0820	0.0260	0.0290	-0.1090	-0.4600	-0.6750
195	-0.0830	0.0260	0.0300	-0.1070	-0.4620	-0.7290
196	-0.0820	0.0250	0.0300	-0.1060	-0.4600	-0.7530
197	-0.0830	0.0270	0.0290	-0.1090	-0.4630	-0.7610
198	-0.0810	0.0290	0.0310	-0.1120	-0.4600	-0.7670
199	-0.0820	0.0280	0.0310	-0.1140	-0.4630	-0.7800
200	-0.0820	0.0300	0.0300	-0.1190	-0.4630	-0.7690
201	-0.0820	0.0290	0.0320	-0.1170	-0.4630	-0.7840
202	-0.0830	0.0270	0.0310	-0.1130	-0.4640	-0.7580
203	-0.0830	0.0270	0.0300	-0.1120	-0.4690	-0.7480
204	-0.0820	0.0270	0.0320	-0.1140	-0.4720	-0.7520
205	-0.0830	0.0270	0.0330	-0.1140	-0.4700	-0.7520
206	-0.0820	0.0270	0.0320	-0.1160	-0.4660	-0.7480
207	-0.0820	0.0260	0.0320	-0.1130	-0.4660	-0.7670
208	-0.0830	0.0260	0.0320	-0.1100	-0.4680	-0.7840
209	-0.0830	0.0250	0.0310	-0.1090	-0.4710	-0.8080
210	-0.0830	0.0260	0.0320	-0.1100	-0.4680	-0.7920
211	-0.0840	0.0270	0.0310	-0.1090	-0.4690	-0.7960
212	-0.0840	0.0290	0.0310	-0.1100	-0.4700	-0.8510
213	-0.0840	0.0290	0.0320	-0.1100	-0.4720	-0.8760
214	-0.0830	0.0290	0.0330	-0.1110	-0.4700	-0.9050
215	-0.0830	0.0280	0.0310	-0.1060	-0.4680	-0.9320
216	-0.0830	0.0280	0.0300	-0.1070	-0.4680	-0.9260
217	-0.0830	0.0260	0.0290	-0.1060	-0.4640	-0.9260
218	-0.0820	0.0250	0.0290	-0.1040	-0.4610	-0.9450
219	-0.0830	0.0250	0.0290	-0.1060	-0.4640	-0.9560
220	-0.0810	0.0260	0.0310	-0.1050	-0.4630	-0.9570
221	-0.0820	0.0260	0.0310	-0.1080	-0.4660	-0.9380
222	-0.0810	0.0250	0.0310	-0.1000	-0.4630	-0.9620
223	-0.0820	0.0240	0.0310	-0.1000	-0.4650	-0.9640
224	-0.0810	0.0240	0.0290	-0.0940	-0.4620	-0.9610
225	-0.0810	0.0250	0.0280	-0.0930	-0.4620	-0.9370
226	-0.0810	0.0250	0.0280	-0.0890	-0.4660	-0.9530
227	-0.0800	0.0240	0.0270	-0.0880	-0.4580	-0.9810
228	-0.0800	0.0220	0.0290	-0.0830	-0.4560	-0.9860
229	-0.0790	0.0220	0.0300	-0.0800	-0.4530	-0.9810
230	-0.0790	0.0220	0.0290	-0.0830	-0.4530	-0.9780
231	-0.0790	0.0220	0.0290	-0.0820	-0.4490	-0.9720
232	-0.0790	0.0220	0.0290	-0.0820	-0.4490	-0.9780
233	-0.0790	0.0210	0.0290	-0.0780	-0.4440	-0.9320
234	-0.0790	0.0200	0.0310	-0.0740	-0.4440	-0.9530
235	-0.0780	0.0210	0.0320	-0.0730	-0.4400	-0.9750
236	-0.0790	0.0210	0.0340	-0.0720	-0.4430	-0.9590
237	-0.0800	0.0220	0.0320	-0.0740	-0.4400	-0.9670
238	-0.0780	0.0220	0.0330	-0.0750	-0.4400	-0.9700
239	-0.0780	0.0220	0.0320	-0.0760	-0.4420	-0.9580
240	-0.0790	0.0220	0.0310	-0.0770	-0.4470	-0.9910
241	-0.0770	0.0230	0.0310	-0.0800	-0.4460	-1.0030
242	-0.0770	0.0230	0.0310	-0.0850	-0.4520	-1.0150
243	-0.0770	0.0240	0.0310	-0.0900	-0.4500	-1.0340
244	-0.0780	0.0240	0.0310	-0.0870	-0.4530	-1.0360
245	-0.0780	0.0230	0.0300	-0.0830	-0.4550	-1.0500
246	-0.0780	0.0230	0.0290	-0.0840	-0.4550	-1.0470
247	-0.0800	0.0230	0.0290	-0.0840	-0.4600	-1.0540
248	-0.0800	0.0240	0.0320	-0.0860	-0.4650	-1.0560
249	-0.0810	0.0240	0.0320	-0.0880	-0.4670	-1.0750
250	-0.0800	0.0240	0.0320	-0.0890	-0.4650	-1.0910
251	-0.0800	0.0250	0.0320	-0.0910	-0.4630	-1.1380
252	-0.0820	0.0240	0.0310	-0.0910	-0.4650	-1.1980
253	-0.0830	0.0260	0.0290	-0.0960	-0.4680	-1.2660
254	-0.0820	0.0260	0.0290	-0.0960	-0.4620	-1.2680
255	-0.0810	0.0260	0.0290	-0.0980	-0.4610	-1.2580
256	-0.0810	0.0270	0.0290	-0.0960	-0.4620	-1.2600
257	-0.0810	0.0280	0.0300	-0.0980	-0.4640	-1.2630
258	-0.0820	0.0270	0.0300	-0.0990	-0.4650	-1.2610
259	-0.0810	0.0270	0.0300	-0.1000	-0.4640	-1.2060
260	-0.0820	0.0280	0.0290	-0.1010	-0.4690	-1.1960
261	-0.0810	0.0270	0.0280	-0.0990	-0.4660	-1.1780
262	-0.0830	0.0280	0.0290	-0.1000	-0.4700	-1.1570
263	-0.0820	0.0260	0.0310	-0.0980	-0.4710	-1.1380
264	-0.0820	0.0260	0.0310	-0.0990	-0.4710	-1.1060
265	-0.0820	0.0250	0.0300	-0.0990	-0.4710	-1.1010
266	-0.0820	0.0250	0.0310	-0.0980	-0.4740	-1.1100
267	-0.0820	0.0260	0.0310	-0.0990	-0.4720	-1.0860
268	-0.0830	0.0270	0.0290	-0.1000	-0.4720	-1.0860
269	-0.0830	0.0270	0.0290	-0.1030	-0.4760	-1.0990
270	-0.0840	0.0280	0.0290	-0.1070	-0.4800	-1.0840
271	-0.0840	0.0290	0.0290	-0.1080	-0.4760	-1.0680
272	-0.0820	0.0280	0.0310	-0.1070	-0.4680	-1.0650
273	-0.0810	0.0280	0.0310	-0.1090	-0.4650	-1.0260
274	-0.0830	0.0280	0.0290	-0.1130	-0.4700	-1.0400
275	-0.0820	0.0280	0.0300	-0.1140	-0.4690	-1.0510
276	-0.0810	0.0270	0.0310	-0.1120	-0.4680	-1.0430
277	-0.0820	0.0270	0.0310	-0.1140	-0.4670	-1.0400
278	-0.0820	0.0290	0.0320	-0.1180	-0.4670	-1.0060
279	-0.0820	0.0290	0.0310	-0.1160	-0.4670	-1.0040
280	-0.0820	0.0290	0.0310	-0.1160	-0.4690	-0.9970
281	-0.0820	0.0280	0.0330	-0.1140	-0.4730	-1.0000
282	-0.0830	0.0280	0.0330	-0.1100	-0.4730	-0.9730
283	-0.0830	0.0280	0.0320	-0.1100	-0.4770	-0.9740
284	-0.0840	0.0270	0.0290	-0.1110	-0.4760	-0.9700
285	-0.0840	0.0260	0.0290	-0.1060	-0.4750	-0.9490
286	-0.0820	0.0260	0.0290	-0.1050	-0.4750	-0.9550
287	-0.0820	0.0240	0.0310	-0.1000	-0.4740	-0.9580
288	-0.0820	0.0230	0.0310	-0.0980	-0.4720	-0.9730
289	-0.0820	0.0230	0.0310	-0.0980	-0.4740	-0.9520
290	-0.0810	0.0240	0.0300	-0.1000	-0.4760	-0.9510
291	-0.0810	0.0240	0.0310	-0.0980	-0.4780	-0.9680
292	-0.0820	0.0240	0.0310	-0.0980	-0.4720	-0.9690
293	-0.0810	0.0240	0.0310	-0.0950	-0.4720	-0.9580
294	-0.0820	0.0250	0.0320	-0.0960	-0.4730	-0.9410
295	-0.0810	0.0240	0.0290	-0.0940	-0.4720	-0.9220
296	-0.0820	0.0250	0.0290	-0.1010	-0.4710	-0.9150
297	-0.0830	0.0270	0.0290	-0.1030	-0.4690	-0.8820
298	-0.0830	0.0250	0.0290	-0.0980	-0.4650	-0.8480
299	-0.0840	0.0240	0.0290	-0.0940	-0.4700	-0.8170
300	-0.0830	0.0260	0.0290	-0.0980	-0.4660	-0.8000
301	-0.0830	0.0250	0.0300	-0.0990	-0.4660	-0.7770
302	-0.0830	0.0250	0.0290	-0.1030	-0.4670	-0.7500
303	-0.0800	0.0260	0.0310	-0.1030	-0.4580	-0.7870
304	-0.0800	0.0250	0.0310	-0.1020	-0.4590	-0.7740
305	-0.0810	0.0250	0.0310	-0.0980	-0.4580	-0.7500
306	-0.0790	0.0240	0.0310	-0.1020	-0.4480	-0.7490
307	-0.0780	0.0250	0.0320	-0.1050	-0.4440	-0.7000
308	-0.0780	0.0250	0.0320	-0.1050	-0.4440	-0.7000
309	-0.0760	0.0260	0.0340	-0.1050	-0.4330	-0.6370
310	-0.0760	0.0250	0.0320	-0.1030	-0.4310	-0.6250
311	-0.0750	0.0250	0.0320	-0.1000	-0.4320	-0.5920
312	-0.0760	0.0250	0.0320	-0.0990	-0.4300	-0.5640
313	-0.0770	0.0250	0.0320	-0.0960	-0.4310	-0.5410
314	-0.0770	0.0250	0.0320	-0.0960	-0.4310	-0.5410
315	-0.0780	0.0260	0.0320	-0.1030	-0.4240	-0.5010
316	-0.0770	0.0260	0.0330	-0.1000	-0.4220	-0.4960
317	-0.0760	0.0250	0.0330	-0.1010	-0.4240	-0.4860
318	-0.0760	0.0240	0.0310	-0.0950	-0.4270	-0.4910
319	-0.0760	0.0250	0.0310	-0.0910	-0.4270	-0.4910
320	-0.0780	0.0230	0.0310	-0.0870	-0.4320	-0.4940
321	-0.0760	0.0240	0.0310	-0.0850	-0.4310	-0.4940
322	-0.0770	0.0230	0.0310	-0.0780	-0.4310	-0.4790
323	-0.0770	0.0220	0.0290	-0.0790	-0.4280	-0.4790
324	-0.0780	0.0220	0.0310	-0.0740	-0.4330	-0.4110
325	-0.0770	0.0230	0.0320	-0.0710	-0.4300	-0.4990
326	-0.0790	0.0240	0.0330	-0.0760	-0.4330	-0.4810
327	-0.0770	0.0230	0.0330	-0.0760	-0.4340	-0.4460
328	-0.0770	0.0220	0.0330	-0.0690	-0.4330	-0.4420
329	-0.0780	0.0220	0.0310	-0.0700	-0.4360	-0.4420
330	-0.0770	0.0210	0.0320	-0.0690	-0.4360	-0.4420
331	-0.0770	0.0210	0.0330	-0.0720	-0.4380	-0.4230
332	-0.0780	0.0210	0.0330	-0.0720	-0.4380	-0.4230
333	-0.0780	0.0200	0.0320	-0.0700	-0.4380	-0.3690
334	-0.0770	0.0200	0.0330	-0.0700	-0.4380	-0.3690
335	-0.0770	0.0200	0.0320	-0.0760	-0.4400	-0.3560
336	-0.0780	0.0210	0.0300	-0.0760	-0.4400	-0.3560
337	-0.0780	0.0210	0.0300	-0.0750	-0.4440	-0.3790
338	-0.0790	0.0210	0.0310	-0.0750	-0.4440	-0.3790
339	-0.0790	0.0190	0.0300	-0.0760	-0.4420	-0.4090
340	-0.0780	0.0190	0.0300	-0.0760	-0.4420	-0.4090
341	-0.0800	0.0190	0.0320	-0.0670	-0.4410	-0.4380
342	-0.0800	0.0180	0.0320	-0.0690	-0.4470	-0.4700
343	-0.0800	0.0190	0.0330	-0.0650	-0.4430	-0.4510
344	-0.0780	0.0180	0.0310	-0.0650	-0.4430	-0.4510
345	-0.0780	0.0180	0.0310	-0.0600	-0.4400	-0.4640
346	-0.0780	0.0190	0.0310	-0.0560	-0.4390	-0.4880
347	-0.0790	0.0190	0.0310	-0.0560	-0.4390	-0.4880
348	-0.0800	0.0180	0.0330	-0.0540	-0.4400	-0.4940
349	-0.0810	0.0180	0.0330	-0.0540	-0.4400	-0.4940
350	-0.0820	0.0180	0.0320	-0.0550	-0.4440	-0.4810
351	-0.0720	0.0180	0.0320	-0.0550	-0.4440	-0.4810
352	-0.0800	0.0180	0.0300	-0.0600	-0.4380	-0.5020
353	-0.0800	0.0180	0.0300	-0.0600	-0.4380	-0.5020
354	-0.0800	0.0170	0.0290	-0.0550	-0.4430	-0.5160
355	-0.0800	0.0170	0.0290	-0.0550	-0.4430	-0.5160
356	-0.0780	0.0180	0.0310	-0.0580	-0.4410	-0.5710
357	-0.0780	0.0190	0.0310	-0.0620	-0.4390	-0.5900
358	-0.0770	0.0190	0.0290	-0.0640	-0.4420	-0.5930
359	-0.0770	0.0190	0.0300	-0.0670	-0.4410	-0.5680
360	-0.0770	0.0180	0.0290	-0.0630	-0.4390	-0.5600
361	-0.0770	0.0180	0.0290	-0.0650	-0.4430	-0.5200
362	-0.0760	0.0190	0.0310	-0.0660	-0.4400	-0.5160
363	-0.0770	0.0210	0.0310	-0.0680	-0.4430	-0.5060
364	-0.0770	0.0210	0.0300	-0.0700	-0.4450	-0.5090
365	-0.0790	0.0220	0.0310	-0.0720	-0.4480	-0.5100
366	-0.0790	0.0210	0.0320	-0.0700	-0.4470	-0.5250
367	-0.0800	0.0200	0.0310	-0.0730	-0.4470	-0.5420
368	-0.0810	0.0200	0.0310	-0.0750	-0.4520	-0.5210
369	-0.0790	0.0200	0.0310	-0.0710	-0.4490	-0.5260
370	-0.0780	0.0200	0.0310	-0.0720	-0.4490	-0.4990
371	-0.0790	0.0190	0.0310	-0.0700	-0.4520	-0.5050
372	-0.0790	0.0190	0.0320	-0.0730	-0.4530	-0.5150
373	-0.0800	0.0200	0.0340	-0.0750	-0.4540	-0.5150
374	-0.0800	0.0200	0.0330	-0.0730	-0.4530	-0.5230
375	-0.0800	0.0220	0.0340	-0.0760	-0.4520	-0.5220
376	-0.0780	0.0210	0.0320	-0.0780	-0.4510	-0.5470
377	-0.0780	0.0210	0.0320	-0.0780	-0.4500	-0.5630
378	-0.0780	0.0220	0.0330	-0.0780	-0.4470	-0.6000
379	-0.0760	0.0230	0.0340	-0.0800	-0.4440	-0.6220
380	-0.0770	0.0220	0.0330	-0.0820	-0.4450	-0.6220
381	-0.0770	0.0240	0.0320	-0.0880	-0.4460	-0.6030
382	-0.0750	0.0240	0.0340	-0.0920	-0.4420	-0.6030
383	-0.0760	0.0250	0.0340	-0.0940	-0.4410	-0.6220
384	-0.0760	0.0240	0.0310	-0.0970	-0.4380	-0.6160
385	-0.0760	0.0240	0.0310	-0.0970	-0.4440	-0.6100
386	-0.0760	0.0250	0.0310	-0.1010	-0.4410	-0.6540
387	-0.0760	0.0250	0.0310	-0.0970	-0.4410	-0.6930
388	-0.0750	0.0260	0.0320	-0.1010	-0.4390	-0.7540
389	-0.0750	0.0250	0.0320	-0.1020	-0.4400	-0.7460
390	-0.0760	0.0250	0.0300	-0.0980	-0.4400	-0.7420
391	-0.0770	0.0240	0.0310	-0.0950	-0.4450	-0.7310
392	-0.0790	0.0230	0.0310	-0.0910	-0.4450	-0.7250
393	-0.0780	0.0230	0.0290	-0.0900	-0.4430	-0.7210
394	-0.0770	0.0220	0.0300	-0.0880	-0.4370	-0.7140
395	-0.0760	0.0250	0.0290	-0.0950	-0.4360	-0.7320
396	-0.0760	0.0260	0.0290	-0.0970	-0.4350	-0.7330
397	-0.0760	0.0260	0.0310	-0.1030	-0.4340	-0.7430
398	-0.0770	0.0260	0.0300	-0.1050	-0.4420	-0.7220
399	-0.0760	0.0260	0.0310	-0.1080	-0.4390	-0.6840
400	-0.0760	0.0260	0.0310	-0.1100	-0.4380	-0.6620
401	-0.0770	0.0260	0.0320	-0.1140	-0.4370	-0.6410
402	-0.0780	0.0250	0.0330	-0.1100	-0.4450	-0.6420
403	-0.0760	0.0260	0.0320	-0.1090	-0.4430	-0.6220
404	-0.0760	0.0270	0.0320	-0.1090	-0.4440	-0.6400
405	-0.0760	0.0260	0.0320	-0.1100	-0.4450	-0.6220
406	-0.0790	0.0270	0.0320	-0.1110	-0.4460	-0.6130
407	-0.0790	0.0270	0.0320	-0.1140	-0.4460	-0.6040
408	-0.0800	0.0270	0.0340	-0.1110	-0.4480	-0.6260
409	-0.0810	0.0270	0.0340	-0.1100	-0.4470	-0.6840
410	-0.0800	0.0260	0.0340	-0.1080	-0.4480	-0.7010
411	-0.0800	0.0240	0.0340	-0.1040	-0.4470	-0.7070
412	-0.0790	0.0260	0.0330	-0.1040	-0.4440	-0.7330
413	-0.0800	0.0260	0.0320	-0.1110	-0.4440	-0.7740
414	-0.0790	0.0260	0.0320	-0.1090	-0.4450	-0.7810
415	-0.0790	0.0270	0.0310	-0.1090	-0.4430	-0.7580
416	-0.0780	0.0260	0.0310	-0.1080	-0.4420	-0.7230
417	-0.0780	0.0270	0.0310	-0.1080	-0.4430	-0.7290
418	-0.0780	0.0250	0.0310	-0.1060	-0.4440	-0.7130
419	-0.0790	0.0260	0.0320	-0.1050	-0.4430	-0.6810
420	-0.0780	0.0260	0.0300	-0.1070	-0.4420	-0.6910
421	-0.0760	0.0270	0.0290	-0.1070	-0.4370	-0.7190
422	-0.0760	0.0270	0.0300	-0.1070	-0.4380	-0.7440
423	-0.0760	0.0260	0.0310	-0.1080	-0.4390	-0.7530
424	-0.0780	0.0260	0.0320	-0.1090	-0.4420	-0.7250
425	-0.0770	0.0270	0.0320	-0.1080	-0.4360	-0.7140
426	-0.0770	0.0260	0.0320	-0.1090	-0.4370	-0.7070
427	-0.0780	0.0260	0.0290	-0.1080	-0.4380	-0.6860
428	-0.0780	0.0250	0.0310	-0.1050	-0.4410	-0.6580
429	-0.0790	0.0250	0.0300	-0.1070	-0.4430	-0.6760
430	-0.0790	0.0250	0.0290	-0.1040	-0.4460	-0.6720
431	-0.0790	0.0250	0.0290	-0.1040	-0.4460	-0.6720
432	-0.0780	0.0260	0.0310	-0.1050	-0.4450	-0.6520
433	-0.0790	0.0270	0.0300	-0.1110	-0.4450	-0.6480
434	-0.0790	0.0270	0.0290	-0.1160	-0.4440	-0.6480
435	-0.0780	0.0270	0.0300	-0.1140	-0.4430	-0.6530
436	-0.0780	0.0280	0.0300	-0.1140	-0.4470	-0.6550
437	-0.0780	0.0270	0.0300	-0.1130	-0.4500	-0.6530
438	-0.0780	0.0260	0.0300	-0.1100	-0.4480	-0.6670
439	-0.0800	0.0270	0.0280	-0.1100	-0.4560	-0.6770
440	-0.0800	0.0260	0.0290	-0.1070	-0.4550	-0.6480
441	-0.0800	0.0280	0.0310	-0.1130	-0.4560	-0.6430
442	-0.0820	0.0280	0.0300	-0.1120	-0.4580	-0.6240
443	-0.0810	0.0280	0.0320	-0.1100	-0.4550	-0.5960
444	-0.0800	0.0270	0.0320	-0.1080	-0.4550	-0.5840
445	-0.0820	0.0270	0.0320	-0.1080	-0.4570	-0.6070
446	-0.0820	0.0270	0.0310	-0.1070	-0.4580	-0.6170
447	-0.0820	0.0250	0.0290	-0.1040	-0.4590	-0.6380
448	-0.0800	0.0250	0.0290	-0.0990	-0.4590	-0.6470
449	-0.0800	0.0250	0.0290	-0.0990	-0.4590	-0.6470
450	-0.0810	0.0270	0.0310	-0.1080	-0.4630	-0.7090
451	-0.0810	0.0260	0.0310	-0.1070	-0.4610	-0.7430
452	-0.0800	0.0250	0.0300	-0.1010	-0.4590	-0.7950
453	-0.0800	0.0250	0.0300	-0.1000	-0.4610	-0.8250
454	-0.0820	0.0250	0.0300	-0.1000	-0.4610	-0.8480
455	-0.0830	0.0240	0.0300	-0.0970	-0.4610	-0.8890
456	-0.0840	0.0240	0.0300	-0.0940	-0.4640	-0.9020
457	-0.0840	0.0240	0.0290	-0.0970	-0.4690	-0.9290
458	-0.0840	0.0240	0.0290	-0.0970	-0.4690	-0.9290
459	-0.0820	0.0260	0.0320	-0.1020	-0.4660	-0.9020
460	-0.0800	0.0270	0.0310	-0.1050	-0.4610	-0.9260
461	-0.0810	0.0270	0.0310	-0.1030	-0.4610	-0.9410
462	-0.0810	0.0270	0.0310	-0.1020	-0.4610	-0.9620
463	-0.0810	0.0280	0.0300	-0.1070	-0.4580	-0.9760
464	-0.0790	0.0290	0.0290	-0.1120	-0.4510	-0.9770
465	-0.0780	0.0300	0.0310	-0.1160	-0.4530	-0.9490
466	-0.0770	0.0300	0.0320	-0.1150	-0.4490	-0.9190
467	-0.0780	0.0300	0.0310	-0.1190	-0.4460	-0.9160
468	-0.0770	0.0280	0.0320	-0.1150	-0.4430	-0.9080
469	-0.0770	0.0300	0.0310	-0.1210	-0.4410	-0.8860
470	-0.0760	0.0310	0.0280	-0.1220	-0.4410	-0.8640
471	-0.0760	0.0300	0.0290	-0.1240	-0.4370	-0.8690
472	-0.0750	0.0310	0.0310	-0.1270	-0.4320	-0.8030
473	-0.0730	0.0300	0.0310	-0.1240	-0.4220	-0.8030
474	-0.0730	0.0320	0.0300	-0.1300	-0.4250	-0.7910
475	-0.0730	0.0320	0.0290	-0.1320	-0.4250	-0.7910
476	-0.0740	0.0310	0.0290	-0.1290	-0.4240	-0.7820
477	-0.0750	0.0300	0.0290	-0.1270	-0.4240	-0.8060
478	-0.0760	0.0310	0.0320	-0.1290	-0.4300	-0.8100
479	-0.0770	0.0300	0.0300	-0.1290	-0.4300	-0.8100
480	-0.0770	0.0310	0.0310	-0.1390	-0.4380	-0.7670
481	-0.0780	0.0310	0.0320	-0.1310	-0.4370	-0.7700
482	-0.0780	0.0320	0.0310	-0.1290	-0.4400	-0.7820
483	-0.0790	0.0310	0.0290	-0.1280	-0.4360	-0.7790
484	-0.0780	0.0300	0.0290	-0.1280	-0.4390	-0.7680
485	-0.0780	0.0300	0.0310	-0.1280	-0.4400	-0.7640
486	-0.0770	0.0300	0.0320	-0.1280	-0.4400	-0.7640
487	-0.0760	0.0300	0.0310	-0.1270	-0.4380	-0.7330
488	-0.0770	0.0300	0.0310	-0.1260	-0.4380	-0.7130
489	-0.0780	0.0310	0.0310	-0.1280	-0.4410	-0.7080
490	-0.0770	0.0300	0.0310	-0.1280	-0.4410	-0.7080
491	-0.0770	0.0320	0.0300	-0.1330	-0.4420	-0.7160
492	-0.0760	0.0300	0.0300	-0.1300	-0.4430	-0.7220
493	-0.0750	0.0300	0.0300	-0.1300	-0.4430	-0.7220
494	-0.0740	0.0300	0.0290	-0.1270	-0.4380	-0.7030
495	-0.0750	0.0300	0.0300	-0.1260	-0.4320	-0.7130
496	-0.0750	0.0310	0.0300	-0.1280	-0.4280	-0.7030
497	-0.0740	0.0310	0.0300	-0.1270	-0.4270	-0.6600
498	-0.0740	0.0310	0.0290	-0.1280	-0.4270	-0.6520
499	-0.0740	0.0310	0.0290	-0.1280	-0.4270	-0.6520
500	-0.0740	0.0300	0.0290	-0.1290	-0.4240	-0.6310
count	accelx	accely	accelz	roll	pitch	heading
1	-0.0680	0.0420	0.0580	0.0300	-0.3000	-0.3330
2	-0.0600	0.0580	0.0310	-0.3010	-0.3320	-0.1690
3	-0.0610	0.0590	0.0320	-0.3060	-0.3320	-0.1380
4	-0.0590	0.0600	0.0300	-0.3090	-0.3290	-0.1540
5	-0.0590	0.0600	0.0310	-0.3030	-0.3280	-0.1380
6	-0.0580	0.0590	0.0310	-0.3010	-0.3280	-0.1320
7	-0.0590	0.0570	0.0290	-0.2930	-0.3320	-0.1430
8	-0.0600	0.0580	0.0300	-0.2960	-0.3300	-0.1660
9	-0.0570	0.0580	0.0310	-0.2960	-0.3300	-0.1190
10	-0.0590	0.0590	0.0290	-0.2940	-0.3240	-0.0910
11	-0.0580	0.0580	0.0290	-0.2920	-0.3210	-0.0360
12	-0.0580	0.0570	0.0310	-0.2930	-0.3210	-0.0150
13	-0.0590	0.0570	0.0290	-0.2910	-0.3280	-0.0050
14	-0.0600	0.0560	0.0280	-0.2920	-0.3320	-0.0070
15	-0.0590	0.0570	0.0300	-0.2950	-0.3310	-0.0250
16	-0.0600	0.0570	0.0310	-0.2930	-0.3290	-0.0170
17	-0.0610	0.0570	0.0310	-0.2960	-0.3340	-0.0600
18	-0.0590	0.0590	0.0320	-0.2970	-0.3350	-0.0950
19	-0.0600	0.0580	0.0310	-0.2960	-0.3380	-0.1130
20	-0.0600	0.0580	0.0310	-0.2980	-0.3370	-0.1030
21	-0.0610	0.0570	0.0320	-0.2940	-0.3380	-0.1000
22	-0.0600	0.0550	0.0310	-0.2860	-0.3360	-0.0960
23	-0.0600	0.0550	0.0290	-0.2810	-0.3420	-0.0560
24	-0.0600	0.0550	0.0290	-0.2790	-0.3390	-0.0670
25	-0.0590	0.0540	0.0310	-0.2780	-0.3440	-0.0680
26	-0.0590	0.0550	0.0320	-0.2790	-0.3470	-0.0800
27	-0.0570	0.0560	0.0320	-0.2830	-0.3390	-0.1000
28	-0.0600	0.0570	0.0310	-0.2840	-0.3390	-0.1060
29	-0.0610	0.0570	0.0300	-0.2840	-0.3430	-0.1270
30	-0.0600	0.0570	0.0310	-0.2860	-0.3410	-0.1500
31	-0.0600	0.0580	0.0300	-0.2870	-0.3390	-0.1600
32	-0.0590	0.0590	0.0290	-0.2940	-0.3400	-0.1760
33	-0.0600	0.0590	0.0310	-0.2920	-0.3440	-0.1850
34	-0.0610	0.0580	0.0310	-0.2880	-0.3440	-0.1550
35	-0.0590	0.0570	0.0310	-0.2900	-0.3430	-0.1310
36	-0.0590	0.0560	0.0320	-0.2910	-0.3400	-0.1540
37	-0.0570	0.0570	0.0290	-0.2900	-0.3370	-0.1660
38	-0.0570	0.0570	0.0290	-0.2920	-0.3340	-0.1660
39	-0.0560	0.0560	0.0300	-0.2880	-0.3310	-0.1570
40	-0.0580	0.0560	0.0290	-0.2870	-0.3360	-0.1230
41	-0.0580	0.0560	0.0280	-0.2860	-0.3350	-0.1310
42	-0.0580	0.0570	0.0290	-0.2920	-0.3330	-0.1300
43	-0.0590	0.0580	0.0310	-0.2960	-0.3290	-0.1210
44	-0.0590	0.0590	0.0310	-0.2980	-0.3300	-0.1130
45	-0.0600	0.0600	0.0310	-0.3040	-0.3320	-0.1130
46	-0.0590	0.0600	0.0310	-0.3020	-0.3280	-0.1050
47	-0.0590	0.0600	0.0310	-0.3040	-0.3230	-0.1280
48	-0.0600	0.0590	0.0330	-0.3010	-0.3220	-0.1290
49	-0.0590	0.0590	0.0310	-0.3020	-0.3220	-0.1270
50	-0.0560	0.0580	0.0300	-0.3010	-0.3140	-0.1420
51	-0.0550	0.0590	0.0310	-0.3010	-0.3150	-0.1300
52	-0.0550	0.0590	0.0300	-0.3020	-0.3130	-0.1110
53	-0.0560	0.0610	0.0290	-0.3020	-0.3190	-0.1320
54	-0.0550	0.0610	0.0280	-0.3040	-0.3160	-0.1480
55	-0.0570	0.0610	0.0290	-0.3060	-0.3200	-0.1630
56	-0.0560	0.0610	0.0290	-0.3070	-0.3210	-0.1620
57	-0.0580	0.0600	0.0310	-0.3020	-0.3210	-0.1680
58	-0.0580	0.0610	0.0310	-0.3000	-0.3210	-0.2050
59	-0.0560	0.0610	0.0320	-0.3030	-0.3190	-0.2130
60	-0.0560	0.0610	0.0310	-0.3030	-0.3180	-0.2250
61	-0.0550	0.0610	0.0320	-0.3030	-0.3170	-0.2120
62	-0.0550	0.0600	0.0310	-0.3020	-0.3150	-0.2220
63	-0.0540	0.0600	0.0300	-0.3030	-0.3100	-0.2250
64	-0.0550	0.0610	0.0280	-0.3040	-0.3110	-0.2170
65	-0.0570	0.0600	0.0280	-0.2990	-0.3170	-0.2250
66	-0.0550	0.0580	0.0280	-0.2970	-0.3130	-0.1900
67	-0.0550	0.0580	0.0280	-0.2940	-0.3120	-0.2420
68	-0.0560	0.0580	0.0300	-0.2960	-0.3180	-0.2580
69	-0.0570	0.0580	0.0290	-0.2940	-0.3190	-0.2250
70	-0.0570	0.0570	0.0310	-0.2890	-0.3180	-0.2370
71	-0.0570	0.0580	0.0310	-0.2880	-0.3160	-0.2300
72	-0.0560	0.0580	0.0310	-0.2920	-0.3170	-0.2410
73	-0.0540	0.0590	0.0310	-0.2960	-0.3100	-0.1930
74	-0.0550	0.0590	0.0310	-0.2980	-0.3110	-0.2160
75	-0.0550	0.0590	0.0320	-0.2970	-0.3130	-0.2220
76	-0.0550	0.0590	0.0330	-0.2940	-0.3210	-0.2090
77	-0.0560	0.0580	0.0320	-0.2960	-0.3200	-0.1870
78	-0.0570	0.0590	0.0310	-0.3000	-0.3220	-0.1890
79	-0.0580	0.0600	0.0320	-0.3020	-0.3250	-0.1610
80	-0.0580	0.0590	0.0320	-0.2980	-0.3230	-0.1710
81	-0.0570	0.0590	0.0310	-0.3010	-0.3240	-0.1800
82	-0.0560	0.0580	0.0310	-0.3020	-0.3210	-0.1780
83	-0.0570	0.0580	0.0320	-0.3010	-0.3210	-0.1440
84	-0.0560	0.0570	0.0310	-0.2990	-0.3210	-0.1300
85	-0.0560	0.0580	0.0310	-0.2980	-0.3210	-0.1170
86	-0.0570	0.0580	0.0290	-0.2950	-0.3220	-0.1340
87	-0.0580	0.0570	0.0300	-0.2930	-0.3250	-0.1170
88	-0.0580	0.0570	0.0310	-0.2890	-0.3260	-0.1110
89	-0.0570	0.0570	0.0310	-0.2910	-0.3260	-0.1090
90	-0.0580	0.0570	0.0310	-0.2910	-0.3240	-0.0890
91	-0.0580	0.0570	0.0310	-0.2900	-0.3280	-0.0890
92	-0.0580	0.0570	0.0310	-0.2860	-0.3280	-0.1040
93	-0.0580	0.0570	0.0310	-0.2860	-0.3280	-0.1040
94	-0.0590	0.0560	0.0310	-0.2840	-0.3290	-0.0620
95	-0.0580	0.0550	-0.0530	-0.7890	-0.0600	-1.4100
96	-0.0590	0.0560	0.0310	-0.2870	-0.3230	-0.0670
97	-0.0580	0.0560	0.0300	-0.2880	-0.3200	-0.0700
98	-0.0570	0.0550	0.0310	-0.2860	-0.3160	-0.0960
99	-0.0570	0.0560	0.0310	-0.2920	-0.3200	-0.0930
100	-0.0560	0.0560	0.0320	-0.2910	-0.3200	-0.0970
101	-0.0560	0.0580	0.0320	-0.2940	-0.3220	-0.1190
102	-0.0560	0.0570	0.0300	-0.2930	-0.3210	-0.1170
103	-0.0560	0.0570	0.0300	-0.2940	-0.3210	-0.0930
104	-0.0580	0.0570	0.0290	-0.2970	-0.3240	-0.0390
105	-0.0570	0.0580	0.0290	-0.2990	-0.3230	0.0010
106	-0.0560	0.0570	0.0300	-0.2970	-0.3250	0.0010
107	-0.0570	0.0570	0.0310	-0.2950	-0.3280	-0.0140
108	-0.0580	0.0580	0.0290	-0.2960	-0.3290	-0.0400
109	-0.0570	0.0560	0.0280	-0.2890	-0.3230	-0.0360
110	-0.0570	0.0570	0.0300	-0.2930	-0.3180	-0.0180
111	-0.0570	0.0560	0.0290	-0.2880	-0.3190	0.0210
112	-0.0590	0.0540	0.0330	-0.2900	-0.3220	0.0270
113	-0.0460	0.0460	0.0290	-0.2310	-0.3050	0.0200
114	-0.0580	0.0470	0.0260	-0.2410	-0.3430	0.0250
115	-0.0600	0.0470	0.0350	-0.2640	-0.2450	0.0570
116	-0.0350	0.0440	0.0340	-0.2490	-0.2190	0.0490
117	-0.0470	0.0560	0.0230	-0.2640	-0.2600	0.0580
118	-0.0450	0.0530	0.0370	-0.2620	-0.2680	0.0650
119	-0.0430	0.0570	0.0310	-0.2820	-0.2690	0.0630
120	-0.0570	0.0530	0.0230	-0.3000	-0.2900	0.0850
121	-0.0690	0.0500	0.0340	-0.3000	-0.3170	0.1290
122	-0.0520	0.0630	0.0300	-0.3170	-0.2960	0.1270
123	-0.0420	0.0660	0.0280	-0.3330	-0.2740	0.1540
124	-0.0460	0.0640	0.0260	-0.3290	-0.2720	0.1390
125	-0.0580	0.0610	0.0340	-0.3380	-0.2610	0.1580
126	-0.0540	0.0560	0.0300	-0.3230	-0.2730	0.1700
127	-0.0480	0.0600	0.0260	-0.3390	-0.2850	0.1860
128	-0.0440	0.0780	0.0330	-0.3510	-0.2660	0.1780
129	-0.0470	0.0620	0.0300	-0.3450	-0.2800	0.1720
130	-0.0570	0.0640	0.0260	-0.3560	-0.2980	0.1860
131	-0.0620	0.0700	0.0300	-0.3480	-0.3060	0.1890
132	-0.0520	0.0560	0.0280	-0.3400	-0.3210	0.1510
133	-0.0550	0.0750	0.0300	-0.3500	-0.3140	0.1380
134	-0.0610	0.0680	0.0320	-0.3350	-0.3420	0.1320
135	-0.0570	0.0520	0.0300	-0.3360	-0.3390	0.1480
136	-0.0730	0.0720	0.0280	-0.3300	-0.3570	0.1780
137	-0.0550	0.0530	0.0280	-0.3220	-0.3500	0.1440
138	-0.0560	0.0640	0.0310	-0.3300	-0.3380	0.0890
139	-0.0640	0.0720	0.0270	-0.3200	-0.3530	0.0950
140	-0.0590	0.0490	0.0290	-0.3040	-0.3570	0.1250
141	-0.0770	0.0690	0.0330	-0.3130	-0.3540	0.1290
142	-0.0550	0.0610	0.0280	-0.3270	-0.3540	0.0680
143	-0.0600	0.0600	0.0310	-0.3150	-0.3550	0.0650
144	-0.0650	0.0710	0.0300	-0.3180	-0.3480	0.0300
145	-0.0550	0.0580	0.0340	-0.3290	-0.3290	-0.0040
146	-0.0640	0.0660	0.0320	-0.3220	-0.3300	-0.0020
147	-0.0560	0.0640	0.0300	-0.3150	-0.3310	-0.0340
148	-0.0530	0.0600	0.0340	-0.3020	-0.3270	-0.0450
149	-0.0600	0.0630	0.0310	-0.2970	-0.3360	-0.0830
150	-0.0630	0.0590	0.0320	-0.2950	-0.3330	-0.1010
151	-0.0580	0.0600	0.0290	-0.3000	-0.3400	-0.1450
152	-0.0670	0.0570	0.0320	-0.2750	-0.3490	-0.1560
153	-0.0490	0.0620	0.0280	-0.2890	-0.3360	-0.2200
154	-0.0650	0.0580	0.0330	-0.2950	-0.3480	-0.1880
155	-0.0580	0.0640	0.0250	-0.3060	-0.3360	-0.1910
156	-0.0600	0.0520	0.0340	-0.2880	-0.2990	-0.1880
157	-0.0520	0.0680	0.0280	-0.3130	-0.3300	-0.2250
158	-0.0620	0.0580	0.0320	-0.3180	-0.3350	-0.2380
159	-0.0470	0.0720	0.0280	-0.3460	-0.3230	-0.2950
160	-0.0670	0.0600	0.0320	-0.3560	-0.3210	-0.3070
161	-0.0480	0.0740	0.0250	-0.3710	-0.3070	-0.3440
162	-0.0630	0.0630	0.0300	-0.3490	-0.3120	-0.3470
163	-0.0630	0.0630	0.0300	-0.3490	-0.3120	-0.3470
164	-0.0640	0.0630	0.0270	-0.3640	-0.3200	-0.3950
165	-0.0640	0.0630	0.0270	-0.3640	-0.3200	-0.3950
166	-0.0660	0.0560	0.0260	-0.3550	-0.3310	-0.4010
167	-0.0490	0.0760	0.0210	-0.3610	-0.3390	-0.4420
168	-0.0700	0.0620	0.0270	-0.3310	-0.3430	-0.4510
169	-0.0450	0.0730	0.0230	-0.3360	-0.3190	-0.4650
170	-0.0680	0.0640	0.0260	-0.3210	-0.3360	-0.4890
171	-0.0530	0.0670	0.0260	-0.3330	-0.3300	-0.4890
172	-0.0710	0.0650	0.0300	-0.3420	-0.3620	-0.4570
173	-0.0560	0.0720	0.0230	-0.3340	-0.3700	-0.4570
174	-0.0690	0.0660	0.0290	-0.3310	-0.3800	-0.4790
175	-0.0740	0.0570	0.0250	-0.3290	-0.3930	-0.5210
176	-0.0660	0.0660	0.0170	-0.3110	-0.4170	-0.5210
177	-0.0790	0.0480	0.0330	-0.2960	-0.4220	-0.5250
178	-0.0650	0.0550	0.0220	-0.2960	-0.3920	-0.5250
179	-0.0860	0.0490	0.0290	-0.2870	-0.3940	-0.6250
180	-0.0710	0.0590	0.0260	-0.2860	-0.3940	-0.6250
181	-0.0880	0.0630	0.0270	-0.2860	-0.4810	-0.6530
182	-0.0840	0.0620	0.0260	-0.3390	-0.4810	-0.6530
183	-0.0750	0.0760	0.0260	-0.3510	-0.4410	-0.6050
184	-0.0740	0.0580	0.0250	-0.3410	-0.4410	-0.6050
185	-0.0660	0.0820	0.0320	-0.3740	-0.3510	-0.6860
186	-0.0710	0.0730	0.0410	-0.4740	-0.3510	-0.6860
187	-0.0560	0.0810	0.0290	-0.3960	-0.3900	-0.6370
188	-0.0650	0.0690	0.0380	-0.3960	-0.3900	-0.6370
189	-0.0600	0.0710	0.0260	-0.3990	-0.3350	-0.6260
190	-0.0700	0.0730	0.0290	-0.3570	-0.3350	-0.6260
191	-0.0740	0.0490	0.0270	-0.3470	-0.3690	-0.6130
192	-0.0570	0.0790	0.0200	-0.3420	-0.3690	-0.5430
193	-0.0690	0.0540	0.0320	-0.3420	-0.3990	-0.6210
194	-0.0460	0.0770	0.0250	-0.3300	-0.3600	-0.5720
195	-0.0820	0.0590	0.0250	-0.3300	-0.3600	-0.5720
196	-0.0540	0.0710	0.0260	-0.3240	-0.3690	-0.5360
197	-0.0640	0.0640	0.0260	-0.3240	-0.3690	-0.5360
198	-0.0710	0.0670	0.0220	-0.3370	-0.3730	-0.5860
199	-0.0710	0.0670	0.0220	-0.3370	-0.3730	-0.5860
200	-0.0670	0.0620	0.0240	-0.2880	-0.4050	-0.5890
201	-0.0620	0.0620	0.0240	-0.2880	-0.4050	-0.5890
202	-0.0730	0.0590	0.0210	-0.3260	-0.3760	-0.5910
203	-0.0400	0.0590	0.0210	-0.3260	-0.3760	-0.5910
204	-0.0740	0.0680	0.0270	-0.3500	-0.3510	-0.6620
205	-0.0740	0.0680	0.0270	-0.3500	-0.3510	-0.6620
206	-0.0560	0.0630	0.0350	-0.4160	-0.2890	-0.6340
207	-0.0580	0.0850	0.0210	-0.4170	-0.2950	-0.6140
208	-0.0340	0.0560	0.0300	-0.3930	-0.2690	-0.5570
209	-0.0530	0.0560	0.0300	-0.3930	-0.2690	-0.5570
210	-0.0530	0.0710	0.0430	-0.3830	-0.2520	-0.5780
211	-0.0160	0.0860	0.0280	-0.3930	-0.2140	-0.5720
212	-0.0610	0.0640	0.0350	-0.3450	-0.2450	-0.5480
213	-0.0220	0.0790	0.0290	-0.3500	-0.2460	-0.5800
214	-0.0650	0.0680	0.0360	-0.3400	-0.3210	-0.5330
215	-0.0470	0.0610	0.0320	-0.3220	-0.3250	-0.5300
216	-0.0640	0.0640	0.0190	-0.2930	-0.3670	-0.5370
217	-0.0730	0.0500	0.0270	-0.2820	-0.3880	-0.4890
218	-0.0560	0.0690	0.0140	-0.3160	-0.3700	-0.5230
219	-0.0830	0.0530	0.0290	-0.3300	-0.3970	-0.4670
220	-0.0530	0.0670	0.0110	-0.3620	-0.4000	-0.4710
221	-0.0860	0.0650	0.0330	-0.3670	-0.3540	-0.4500
222	-0.0330	0.0830	0.0180	-0.4040	-0.3340	-0.4770
223	-0.0730	0.0800	0.0350	-0.3950	-0.3340	-0.4350
224	-0.0440	0.0700	0.0330	-0.4000	-0.3170	-0.4620
225	-0.0580	0.0790	0.0250	-0.3860	-0.3300	-0.4840
226	-0.0640	0.0550	0.0340	-0.3640	-0.3090	-0.4870
227	-0.0480	0.0890	0.0210	-0.4010	-0.3450	-0.5180
228	-0.0720	0.0680	0.0360	-0.3630	-0.3560	-0.5010
229	-0.0490	0.0840	0.0220	-0.3860	-0.3610	-0.5120
230	-0.0900	0.0640	0.0280	-0.3830	-0.4250	-0.4720
231	-0.0620	0.0830	0.0210	-0.4330	-0.4360	-0.4730
232	-0.0830	0.0830	0.0220	-0.4060	-0.4680	-0.4520
233	-0.0760	0.0700	0.0270	-0.4060	-0.4280	-0.4550
234	-0.0670	0.0940	0.0240	-0.4590	-0.4420	-0.4680
235	-0.0860	0.0770	0.0280	-0.4280	-0.4270	-0.4120
236	-0.0630	0.0880	0.0300	-0.4550	-0.3850	-0.4500
237	-0.0800	0.0760	0.0270	-0.4310	-0.4200	-0.4050
238	-0.0670	0.0920	0.0290	-0.4300	-0.3970	-0.3970
239	-0.0790	0.0800	0.0310	-0.4270	-0.4160	-0.3940
240	-0.0760	0.0880	0.0280	-0.4200	-0.4860	-0.4290
241	-0.0960	0.0740	0.0400	-0.3700	-0.5060	-0.4460
242	-0.0950	0.0640	0.0310	-0.3660	-0.5300	-0.4620
243	-0.0930	0.0770	0.0240	-0.3360	-0.5630	-0.4540
244	-0.1050	0.0660	0.0340	-0.3310	-0.5900	-0.4330
245	-0.0900	0.0800	0.0270	-0.3470	-0.5800	-0.4590
246	-0.1070	0.0680	0.0330	-0.3250	-0.5810	-0.4700
247	-0.0880	0.0650	0.0280	-0.2990	-0.5790	-0.5180
248	-0.1060	0.0680	0.0300	-0.2970	-0.5620	-0.5020
249	-0.0910	0.0550	0.0280	-0.3040	-0.5500	-0.4840
250	-0.0930	0.0590	0.0200	-0.2770	-0.5500	-0.4970
251	-0.1060	0.0520	0.0310	-0.2900	-0.5580	-0.4930
252	-0.0710	0.0770	0.0120	-0.3340	-0.5260	-0.5370
253	-0.0970	0.0640	0.0340	-0.3310	-0.4900	-0.4920
254	-0.0570	0.0810	0.0150	-0.3700	-0.4250	-0.5160
255	-0.0810	0.0670	0.0370	-0.3530	-0.3750	-0.4930
256	-0.0370	0.0800	0.0220	-0.3560	-0.3050	-0.5200
257	-0.0710	0.0660	0.0350	-0.3370	-0.2950	-0.4270
258	-0.0340	0.0720	0.0280	-0.3660	-0.2680	-0.4380
259	-0.0580	0.0740	0.0360	-0.3320	-0.2840	-0.4200
260	-0.0600	0.0630	0.0320	-0.3230	-0.3020	-0.3560
261	-0.0480	0.0800	0.0200	-0.3330	-0.3220	-0.3450
262	-0.0690	0.0600	0.0320	-0.2800	-0.3200	-0.3230
263	-0.0430	0.0720	0.0170	-0.2660	-0.3270	-0.3510
264	-0.0690	0.0570	0.0390	-0.2500	-0.3260	-0.3010
265	-0.0420	0.0670	0.0250	-0.2460	-0.3250	-0.3050
266	-0.0720	0.0470	0.0340	-0.2280	-0.3340	-0.2590
267	-0.0550	0.0540	0.0300	-0.2530	-0.3410	-0.2590
268	-0.0710	0.0580	0.0270	-0.2280	-0.3640	-0.2740
269	-0.0660	0.0420	0.0310	-0.2210	-0.3750	-0.2430
270	-0.0630	0.0620	0.0230	-0.1990	-0.3830	-0.2560
271	-0.0690	0.0260	0.0320	-0.1840	-0.3720	-0.2160
272	-0.0510	0.0590	0.0320	-0.2180	-0.3340	-0.2750
273	-0.0650	0.0300	0.0370	-0.2140	-0.2970	-0.2290
274	-0.0340	0.0530	0.0370	-0.2450	-0.2450	-0.2870
275	-0.0570	0.0450	0.0440	-0.2330	-0.2570	-0.2720
276	-0.0330	0.0560	0.0380	-0.2480	-0.2090	-0.3090
277	-0.0550	0.0420	0.0410	-0.2050	-0.2490	-0.2830
278	-0.0440	0.0450	0.0410	-0.1880	-0.2460	-0.2850
279	-0.0500	0.0450	0.0310	-0.2070	-0.2930	-0.2530
280	-0.0570	0.0380	0.0340	-0.1880	-0.2830	-0.2490
281	-0.0510	0.0400	0.0250	-0.2000	-0.2860	-0.2770
282	-0.0650	0.0320	0.0360	-0.1810	-0.2780	-0.2770
283	-0.0450	0.0350	0.0300	-0.1860	-0.2620	-0.2550
284	-0.0560	0.0460	0.0260	-0.2070	-0.2980	-0.3160
285	-0.0370	0.0490	0.0340	-0.1990	-0.2450	-0.3110
286	-0.0530	0.0460	0.0290	-0.1900	-0.2540	-0.3370
287	-0.0300	0.0420	0.0360	-0.1860	-0.2130	-0.3860
288	-0.0370	0.0480	0.0350	-0.1780	-0.1920	-0.3620
289	-0.0410	0.0320	0.0330	-0.1770	-0.2020	-0.3430
290	-0.0320	0.0460	0.0260	-0.1880	-0.2210	-0.3660
291	-0.0530	0.0290	0.0330	-0.1490	-0.2360	-0.2780
292	-0.0120	0.0550	0.0150	-0.1880	-0.1950	-0.3150
293	-0.0430	0.0320	0.0300	-0.1700	-0.1580	-0.2790
294	-0.0160	0.0380	0.0210	-0.2170	-0.1150	-0.3010
295	-0.0330	0.0320	0.0220	-0.2080	-0.1150	-0.2990
296	-0.0080	0.0460	0.0220	-0.2280	-0.0570	-0.2600
297	-0.0220	0.0430	0.0240	-0.2720	-0.0680	-0.2220
298	-0.0120	0.0500	0.0270	-0.2700	-0.0620	-0.1830
299	-0.0220	0.0500	0.0290	-0.2710	-0.0980	-0.1540
300	-0.0140	0.0490	0.0300	-0.2680	-0.0720	-0.1380
301	0.0030	0.0660	0.0290	-0.3110	-0.0270	-0.1520
302	-0.0120	0.0490	0.0300	-0.3170	-0.0090	-0.0990
303	0.0170	0.0630	0.0260	-0.3680	0.0660	-0.1170
304	0.0060	0.0700	0.0320	-0.3770	0.0940	-0.1100
305	0.0280	0.0720	0.0310	-0.3880	0.1410	-0.0680
306	0.0130	0.0740	0.0380	-0.4050	0.1660	-0.0340
307	0.0300	0.0860	0.0380	-0.4040	0.1350	-0.0880
308	0.0140	0.0840	0.0440	-0.4150	0.1220	-0.0700
309	0.0080	0.0630	0.0420	-0.3930	0.1190	-0.0360
310	0.0080	0.0630	0.0420	-0.3930	0.1190	-0.0360
311	0.0020	0.0550	0.0350	-0.3480	0.1010	-0.0110
312	0.0210	0.0760	0.0280	-0.3520	0.1020	-0.0360
313	-0.0010	0.0550	0.0420	-0.3350	0.0880	-0.0150
314	0.0260	0.0780	0.0350	-0.3450	0.1130	-0.0460
315	0.0110	0.0590	0.0390	-0.3130	0.1120	-0.0240
316	0.0280	0.0670	0.0340	-0.3240	0.1180	-0.0960
317	0.0230	0.0660	0.0280	-0.3120	0.1500	-0.1040
318	0.0120	0.0540	0.0400	-0.3110	0.1560	-0.1170
319	0.0360	0.0670	0.0280	-0.3280	0.1550	-0.1220
320	0.0130	0.0540	0.0370	-0.3060	0.1470	-0.0720
321	0.0340	0.0590	0.0290	-0.3130	0.1610	-0.0940
322	0.0090	0.0500	0.0360	-0.2980	0.1630	-0.0480
323	0.0370	0.0590	0.0230	-0.3260	0.1600	-0.0480
324	0.0100	0.0670	0.0310	-0.3000	0.1350	0.0000
325	0.0180	0.0510	0.0210	-0.3260	0.1540	0.0300
326	0.0390	0.0750	0.0220	-0.3230	0.2130	0.0710
327	0.0460	0.0570	0.0170	-0.3470	0.2560	0.0710
328	0.0590	0.0860	0.0250	-0.3830	0.2960	0.0800
329	0.0290	0.0500	0.0300	-0.3460	0.2990	0.0800
330	0.0670	0.0910	0.0210	-0.3800	0.2960	0.1490
331	0.0440	0.0680	0.0360	-0.3510	0.2950	0.0960
332	0.0570	0.0820	0.0230	-0.3700	0.3360	0.1620
333	0.0550	0.0780	0.0240	-0.3530	0.3360	0.1620
334	0.0490	0.0730	0.0260	-0.3730	0.3010	0.1970
335	0.0530	0.0770	0.0150	-0.3780	0.2970	0.2220
336	0.0300	0.0670	0.0240	-0.3590	0.2840	0.2400
337	0.0540	0.0750	0.0180	-0.3510	0.2590	0.2570
338	0.0420	0.0750	0.0200	-0.3510	0.2590	0.2570
339	0.0400	0.0660	0.0230	-0.3510	0.2760	0.2230
340	0.0540	0.0830	0.0060	-0.3510	0.2760	0.2230
341	0.0420	0.0670	0.0160	-0.3960	0.2810	0.1850
342	0.0560	0.0900	0.0190	-0.3860	0.2680	0.1600
343	0.0430	0.0630	0.0080	-0.4300	0.2730	0.1090
344	0.0750	0.0990	0.0280	-0.4270	0.3220	0.1100
345	0.0520	0.0790	0.0140	-0.4560	0.3550	0.0770
346	0.0710	0.0850	0.0140	-0.4560	0.3550	0.0770
347	0.0600	0.1050	0.0200	-0.4740	0.3980	0.0860
348	0.0650	0.0010	0.0210	-0.4820	0.3840	0.1130
349	0.0660	0.0900	0.0260	-0.5080	0.3620	0.1600
350	0.0520	0.1000	0.0200	-0.4920	0.3790	0.1400
351	0.0690	0.0790	0.0430	-0.4730	0.4190	0.1700
352	0.0380	0.0790	0.0430	-0.4730	0.4190	0.1700
353	0.0620	0.0840	0.0300	-0.4890	0.3430	0.1920
354	0.0540	0.0900	0.0260	-0.4950	0.3550	0.1530
355	0.0540	0.0900	0.0260	-0.4950	0.3550	0.1530
356	0.0690	0.0860	0.0300	-0.5120	0.4270	0.1690
357	0.0800	0.1060	0.0320	-0.5200	0.4400	0.1160
358	0.0560	0.0740	0.0330	-0.5020	0.4280	0.1820
359	0.0810	0.1030	0.0250	-0.5260	0.4370	0.1620
360	0.0660	0.0960	0.0180	-0.4930	0.3990	0.1820
361	0.0730	0.0990	0.0280	-0.4940	0.4040	0.1580
362	0.0640	0.0930	0.0220	-0.5080	0.3750	0.1600
363	0.0660	0.0970	0.0340	-0.5110	0.4040	0.1430
364	0.0650	0.0880	0.0240	-0.4730	0.3700	0.1940
365	0.0370	0.0810	0.0320	-0.4610	0.3290	0.2140
366	0.0650	0.0920	0.0210	-0.4810	0.3290	0.2420
367	0.0420	0.0840	0.0250	-0.4340	0.3060	0.2900
368	0.0490	0.0830	0.0270	-0.4540	0.3220	0.3240
369	0.0610	0.0980	0.0220	-0.4750	0.3300	0.2880
370	0.0430	0.0830	0.0360	-0.4760	0.3040	0.3110
371	0.0590	0.0970	0.0190	-0.4480	0.3250	0.3030
372	0.0280	0.0790	0.0300	-0.4340	0.2810	0.3580
373	0.0520	0.0960	0.0260	-0.4820	0.2580	0.3190
374	0.0310	0.0850	0.0250	-0.4420	0.2340	0.3550
375	0.0400	0.0750	0.0200	-0.4300	0.2470	0.3490
376	0.0390	0.0920	0.0200	-0.4670	0.2370	0.3020
377	0.0370	0.0840	0.0340	-0.4820	0.2470	0.3270
378	0.0490	0.0950	0.0270	-0.4900	0.2520	0.3750
379	0.0280	0.0860	0.0350	-0.4860	0.2670	0.4230
380	0.0560	0.0930	0.0280	-0.5320	0.2780	0.4000
381	0.0260	0.0960	0.0330	-0.5490	0.2450	0.4350
382	0.0360	0.0970	0.0320	-0.5740	0.2650	0.5020
383	0.0330	0.1040	0.0270	-0.5870	0.2400	0.5260
384	0.0260	0.0990	0.0270	-0.5580	0.2340	0.5580
385	0.0350	0.1160	0.0220	-0.5710	0.2100	0.5380
386	0.0140	0.0910	0.0360	-0.5260	0.1770	0.5660
387	0.0340	0.1160	0.0280	-0.5760	0.1380	0.5720
388	-0.0110	0.0910	0.0280	-0.5060	0.0450	0.6200
389	0.0090	0.0880	0.0240	-0.5110	0.0370	0.5890
390	-0.0100	0.1080	0.0170	-0.5340	-0.0240	0.5660
391	-0.0010	0.1030	0.0230	-0.5140	-0.0240	0.6030
392	-0.0060	0.1080	0.0230	-0.4970	-0.0200	0.5850
393	-0.0120	0.0950	0.0320	-0.4890	-0.0120	0.6010
394	0.0080	0.0960	0.0230	-0.4650	-0.0250	0.5680
395	-0.0280	0.0830	0.0330	-0.4500	-0.0530	0.5750
396	0.0060	0.0840	0.0200	-0.4490	-0.0090	0.5380
397	-0.0190	0.0780	0.0210	-0.3990	-0.0370	0.5120
398	-0.0040	0.0730	0.0250	-0.4310	-0.0070	0.5540
399	-0.0100	0.0880	0.0270	-0.4790	-0.0580	0.5340
400	-0.0220	0.0760	0.0220	-0.4690	-0.0950	0.5520
401	-0.0140	0.1010	0.0260	-0.5150	-0.0750	0.5470
402	-0.0210	0.0860	0.0240	-0.5170	-0.0630	0.5770
403	0.0020	0.1140	0.0300	-0.6090	-0.0130	0.5130
404	-0.0120	0.1090	0.0310	-0.6330	-0.0200	0.5440
405	-0.0010	0.1140	0.0360	-0.6440	0.0320	0.5210
406	0.0070	0.1250	0.0280	-0.6550	0.0480	0.5060
407	-0.0010	0.1130	0.0390	-0.6370	0.0470	0.5230
408	0.0040	0.1180	0.0340	-0.6380	0.0330	0.5210
409	-0.0170	0.1100	0.0420	-0.6180	0.0000	0.5030
410	0.0050	0.1180	0.0330	-0.6140	-0.0440	0.5040
411	-0.0360	0.1030	0.0360	-0.5980	-0.1180	0.5660
412	-0.0220	0.1050	0.0310	-0.5820	-0.1250	0.5260
413	-0.0280	0.1080	0.0250	-0.5550	-0.1280	0.5240
414	-0.0310	0.0850	0.0330	-0.5370	-0.1220	0.5310
415	-0.0130	0.1120	0.0270	-0.5870	-0.1090	0.4770
416	-0.0310	0.0990	0.0310	-0.5860	-0.1280	0.4640
417	-0.0060	0.1170	0.0200	-0.6000	-0.1010	0.4400
418	-0.0440	0.0910	0.0360	-0.5740	-0.1150	0.5100
419	-0.0070	0.1120	0.0210	-0.5710	-0.1090	0.4580
420	-0.0370	0.1000	0.0300	-0.5670	-0.1190	0.5110
421	-0.0280	0.1040	0.0260	-0.6040	-0.1480	0.4930
422	-0.0230	0.1240	0.0240	-0.6200	-0.1490	0.4530
423	-0.0250	0.1050	0.0300	-0.6270	-0.1030	0.4920
424	-0.0060	0.1270	0.0240	-0.6470	-0.0780	0.4640
425	-0.0270	0.1080	0.0390	-0.6600	-0.0650	0.5570
426	0.0040	0.1300	0.0230	-0.6650	-0.0270	0.5360
427	-0.0330	0.1100	0.0400	-0.6360	-0.0640	0.6230
428	-0.0020	0.1280	0.0230	-0.6550	-0.0670	0.5860
429	-0.0270	0.1170	0.0310	-0.6340	-0.0830	0.6440
430	-0.0160	0.1180	0.0240	-0.6840	-0.0940	0.6230
431	-0.0180	0.1400	0.0200	-0.6850	-0.0900	0.6280
432	-0.0250	0.1080	0.0220	-0.6850	-0.0880	0.6390
433	0.0050	0.1400	0.0230	-0.7090	-0.0430	0.5900
434	-0.0160	0.1160	0.0310	-0.7200	0.0120	0.6060
435	0.0210	0.1400	0.0290	-0.7520	0.0780	0.5520
436	-0.0060	0.1240	0.0330	-0.7330	0.0840	0.6330
437	0.0090	0.1310	0.0300	-0.7300	0.0660	0.6510
438	0.0100	0.1360	0.0230	-0.6880	0.0480	0.6460
439	-0.0020	0.1200	0.0330	-0.6710	0.0590	0.6840
440	0.0130	0.1210	0.0220	-0.6590	0.0740	0.6540
441	-0.0070	0.1150	0.0370	-0.6380	0.0700	0.7130
442	0.0170	0.1190	0.0210	-0.6350	0.0640	0.7380
443	-0.0140	0.1120	0.0330	-0.5850	0.0180	0.7400
444	0.0020	0.1100	0.0260	-0.5860	-0.0420	0.7690
445	-0.0250	0.1110	0.0330	-0.5810	-0.0560	0.7900
446	-0.0220	0.0960	0.0250	-0.5590	-0.0930	0.8000
447	-0.0210	0.1010	0.0300	-0.5530	-0.0880	0.7590
448	-0.0320	0.0960	0.0350	-0.5970	-0.0860	0.8390
449	-0.0100	0.1190	0.0190	-0.5910	-0.0990	0.8100
450	-0.0310	0.1010	0.0360	-0.5790	-0.1190	0.8120
451	-0.0130	0.1090	0.0240	-0.5730	-0.1360	0.7580
452	-0.0290	0.1080	0.0310	-0.6000	-0.0870	0.7540
453	-0.0050	0.1100	0.0280	-0.6110	-0.0940	0.7150
454	-0.0310	0.1100	0.0280	-0.5990	-0.1010	0.7130
455	-0.0150	0.1030	0.0320	-0.6090	-0.0430	0.7280
456	-0.0060	0.1280	0.0280	-0.6550	-0.0360	0.6750
457	-0.0200	0.1020	0.0320	-0.6220	-0.0190	0.6930
458	-0.0070	0.1260	0.0350	-0.6700	-0.0390	0.6600
459	-0.0340	0.1150	0.0300	-0.6480	-0.1080	0.6880
460	-0.0130	0.1290	0.0370	-0.6640	-0.0910	0.6760
461	-0.0360	0.1150	0.0310	-0.6320	-0.1220	0.7430
462	-0.0170	0.1160	0.0340	-0.6350	-0.0860	0.6950
463	-0.0270	0.1110	0.0270	-0.6050	-0.1190	0.6470
464	-0.0330	0.1030	0.0300	-0.5940	-0.1370	0.6320
465	-0.0220	0.1230	0.0290	-0.6290	-0.1320	0.5910
466	-0.0430	0.1020	0.0330	-0.6170	-0.1520	0.6380
467	-0.0130	0.1220	0.0200	-0.6440	-0.0890	0.5690
468	-0.0260	0.1160	0.0290	-0.6400	-0.0730	0.5650
469	0.0110	0.1240	0.0220	-0.6300	0.0270	0.5580
470	-0.0110	0.1100	0.0310	-0.6510	0.0330	0.5970
471	0.0190	0.1310	0.0310	-0.6810	0.0520	0.6020
472	0.0070	0.1160	0.0280	-0.6490	0.1100	0.6110
473	0.0310	0.1160	0.0320	-0.6520	0.1380	0.5570
474	0.0320	0.1360	0.0230	-0.6660	0.1810	0.5130
475	0.0140	0.1090	0.0380	-0.6790	0.2140	0.5520
476	0.0420	0.1240	0.0190	-0.6440	0.1880	0.5330
477	-0.0050	0.1010	0.0390	-0.5810	0.1010	0.5790
478	0.0150	0.1130	0.0250	-0.5670	0.0430	0.5180
479	-0.0140	0.1020	0.0320	-0.5570	0.0060	0.5010
480	-0.0140	0.1020	0.0320	-0.5570	0.0060	0.5010
481	-0.0230	0.0960	0.0340	-0.5720	-0.0410	0.4350
482	-0.0230	0.0960	0.0340	-0.5720	-0.0410	0.4350
483	-0.0090	0.1070	0.0280	-0.5710	0.0040	0.3650
484	-0.0090	0.1070	0.0280	-0.5710	0.0040	0.3650
485	0.0080	0.1290	0.0220	-0.5950	-0.0190	0.3120
486	-0.0170	0.0990	0.0340	-0.5430	0.0060	0.3330
487	0.0070	0.1100	0.0270	-0.5640	-0.0160	0.2490
488	-0.0220	0.0980	0.0350	-0.5390	-0.0230	0.2480
489	0.0020	0.1060	0.0300	-0.5700	-0.0310	0.2248
490	-0.0240	0.0990	0.0330	-0.5290	-0.0340	0.2060
491	0.0040	0.1040	0.0350	-0.5680	-0.0040	0.2060
492	0.0020	0.1140	0.0240	-0.6030	-0.0280	0.1750
493	-0.0130	0.1020	0.0330	-0.6010	-0.0090	0.1750
494	-0.0020	0.1140	0.0240	-0.6190	-0.0360	0.1990
495	-0.0250	0.1030	0.0260	-0.5810	-0.0360	0.1990
496	-0.0200	0.1180	0.0290	-0.5690	-0.1520	0.2550
497	-0.0460	0.1000	0.0280	-0.5310	-0.1520	0.2550
498	-0.0390	0.1200	0.0300	-0.5120	-0.2480	0.2990
499	-0.0490	0.0910	0.0300	-0.4970	-0.2480	0.2990
500	-0.0480	0.1020	0.0300	-0.5150	-0.2480	0.2990
501	-0.0680	0.0930	0.0280	-0.5050	-0.3000	0.1540
502	-0.0670	0.0910	0.0250	-0.5030	-0.3570	0.1970
503	-0.0600	0.1000	0.0270	-0.4890	-0.3710	0.2360
504	-0.0870	0.0870	0.0180	-0.4890	-0.3710	0.2360
505	-0.0640	0.0920	0.0200	-0.4620	-0.4460	0.2850
506	-0.0860	0.0870	0.0180	-0.4620	-0.4460	0.2850
507	-0.0620	0.0910	0.0190	-0.4750	-0.4150	0.2820
508	-0.0720	0.0890	0.0260	-0.4750	-0.4150	0.2820
509	-0.0430	0.1030	0.0280	-0.5080	-0.3440	0.2870
510	-0.0450	0.0990	0.0280	-0.5080	-0.3440	0.2870
511	-0.0180	0.1060	0.0340	-0.5520	-0.2090	0.3340
512	-0.0350	0.0950	0.0340	-0.5520	-0.2090	0.3340
513	-0.0340	0.1000	0.0400	-0.5420	-0.1360	0.3820
514	-0.0360	0.0990	0.0400	-0.5420	-0.1360	0.3820
515	-0.0650	0.1010	0.0300	-0.5550	-0.2100	0.4450
516	-0.0420	0.1010	0.0300	-0.5550	-0.2100	0.4450
517	-0.0680	0.1070	0.0240	-0.5350	-0.3440	0.4210
518	-0.0400	0.0970	0.0320	-0.5500	-0.3190	0.3920
519	-0.0610	0.1120	0.0270	-0.5650	-0.2980	0.3220
520	-0.0530	0.1070	0.0310	-0.5520	-0.2790	0.3300
521	-0.0530	0.1070	0.0310	-0.5520	-0.2790	0.3300
522	-0.0560	0.1050	0.0270	-0.5460	-0.3370	0.3480
523	-0.0560	0.1050	0.0270	-0.5460	-0.3370	0.3480
524	-0.0510	0.1040	0.0250	-0.5680	-0.3040	0.3220
525	-0.0510	0.1040	0.0250	-0.5680	-0.3040	0.3220
526	-0.0610	0.1020	0.0280	-0.5420	-0.3020	0.2800
527	-0.0610	0.1010	0.0260	-0.5160	-0.3160	0.2520
528	-0.0640	0.0980	0.0300	-0.5010	-0.3400	0.2570
529	-0.0600	0.1010	0.0300	-0.4870	-0.3470	0.2320
530	-0.0600	0.0980	0.0300	-0.4750	-0.3580	0.2220
531	-0.0610	0.0840	0.0360	-0.4670	-0.3340	0.2300
532	-0.0610	0.0960	0.0310	-0.5120	-0.3430	0.2230
533	-0.0740	0.0910	0.0310	-0.4970	-0.4010	0.2720
534	-0.0620	0.0970	0.0190	-0.4990	-0.3800	0.2870
535	-0.0790	0.0930	0.0320	-0.5100	-0.3750	0.3320
536	-0.0500	0.1070	0.0210	-0.5360	-0.3610	0.3200
537	-0.0690	0.0980	0.0340	-0.5280	-0.3300	0.3090
538	-0.0460	0.1010	0.0250	-0.5200	-0.3260	0.2620
539	-0.0650	0.0870	0.0360	-0.5020	-0.3110	0.2740
540	-0.0490	0.0990	0.0280	-0.4940	-0.3220	0.3110
541	-0.0670	0.0880	0.0320	-0.4770	-0.3420	0.3720
542	-0.0530	0.0960	0.0350	-0.4960	-0.3180	0.3480
543	-0.0610	0.0940	0.0250	-0.4860	-0.3320	0.3440
544	-0.0620	0.0920	0.0370	-0.5080	-0.3130	0.3680
545	-0.0610	0.1040	0.0220	-0.5010	-0.3510	0.3410
546	-0.0740	0.0850	0.0320	-0.4760	-0.3650	0.3670
547	-0.0600	0.1040	0.0250	-0.5120	-0.3970	0.3240
548	-0.0890	0.0860	0.0320	-0.5010	-0.4100	0.3260
549	-0.0480	0.1020	0.0290	-0.5300	-0.3350	0.2430
550	-0.0680	0.0920	0.0320	-0.5330	-0.3290	0.2650
551	-0.0490	0.1040	0.0230	-0.5530	-0.2840	0.2020
552	-0.0580	0.0990	0.0260	-0.5310	-0.2990	0.1990
553	-0.0490	0.0990	0.0260	-0.5230	-0.2800	0.1580
554	-0.0560	0.0930	0.0310	-0.5350	-0.3080	0.1200
555	-0.0590	0.0980	0.0190	-0.5630	-0.3200	0.1190
556	-0.0620	0.1050	0.0290	-0.5780	-0.3280	0.1210
557	-0.0550	0.1100	0.0220	-0.5840	-0.3410	0.0830
558	-0.0650	0.1010	0.0340	-0.5670	-0.3270	0.0890
559	-0.0460	0.1150	0.0240	-0.5610	-0.3280	0.0480
560	-0.0790	0.0990	0.0350	-0.5280	-0.3750	0.0390
561	-0.0550	0.1070	0.0280	-0.5580	-0.3830	0.0470
562	-0.0720	0.1100	0.0280	-0.5450	-0.3940	0.0620
563	-0.0590	0.1020	0.0390	-0.5530	-0.3830	0.0920
564	-0.0690	0.1130	0.0210	-0.5360	-0.3870	0.0780
565	-0.0810	0.0850	0.0390	-0.4910	-0.4040	0.1030
566	-0.0640	0.1140	0.0220	-0.5020	-0.4570	0.0140
567	-0.0970	0.0770	0.0330	-0.4470	-0.4750	0.0490
568	-0.0610	0.1150	0.0180	-0.4920	-0.4770	-0.0200
569	-0.0930	0.0800	0.0390	-0.5010	-0.4350	0.0340
570	-0.0540	0.1150	0.0190	-0.5880	-0.3870	-0.0290
571	-0.0860	0.1000	0.0280	-0.5160	-0.4150	-0.0200
572	-0.0550	0.1070	0.0280	-0.5510	-0.3910	-0.0670
573	-0.0680	0.1150	0.0200	-0.5520	-0.3990	-0.1210
574	-0.0510	0.0920	0.0240	-0.5300	-0.3270	-0.1360
575	-0.0500	0.1130	0.0270	-0.5640	-0.3050	-0.1870
576	-0.0500	0.0960	0.0230	-0.5200	-0.2950	-0.2220
577	-0.0530	0.1030	0.0320	-0.5240	-0.3070	-0.2530
578	-0.0590	0.1010	0.0270	-0.5390	-0.3480	-0.2710
579	-0.0580	0.0920	0.0280	-0.5280	-0.3440	-0.2620
580	-0.0570	0.1010	0.0300	-0.5270	-0.3570	-0.3150
581	-0.0690	0.0980	0.0300	-0.5410	-0.3400	-0.3190
582	-0.0620	0.0920	0.0330	-0.5430	-0.3430	-0.3280
583	-0.0610	0.1080	0.0250	-0.5370	-0.3570	-0.3660
584	-0.0820	0.0860	0.0260	-0.5160	-0.4080	-0.3170
585	-0.0500	0.1200	0.0240	-0.5310	-0.3760	-0.3680
586	-0.0690	0.0920	0.0370	-0.5700	-0.3180	-0.3490
587	-0.0290	0.1260	0.0190	-0.6150	-0.2840	-0.4140
588	-0.0640	0.0940	0.0340	-0.5550	-0.2730	-0.3810
589	-0.0410	0.1130	0.0270	-0.5750	-0.2680	-0.4240
590	-0.0500	0.1070	0.0280	-0.5290	-0.2730	-0.3950
591	-0.0410	0.0930	0.0300	-0.5230	-0.2580	-0.4070
592	-0.0500	0.0990	0.0250	-0.5110	-0.2760	-0.4180
593	-0.0480	0.0960	0.0300	-0.4870	-0.2950	-0.4430
594	-0.0610	0.0930	0.0310	-0.4850	-0.3020	-0.4690
595	-0.0520	0.0940	0.0300	-0.4660	-0.3260	-0.4380
596	-0.0560	0.0820	0.0340	-0.4400	-0.3070	-0.4540
597	-0.0490	0.0810	0.0320	-0.4220	-0.3040	-0.4870
598	-0.0530	0.0800	0.0270	-0.4260	-0.3300	-0.5170
599	-0.0580	0.0740	0.0320	-0.4120	-0.3210	-0.4740
600	-0.0440	0.0920	0.0350	-0.4200	-0.3240	-0.5070
601	-0.0650	0.0640	0.0320	-0.4270	-0.3240	-0.4470
602	-0.0390	0.0930	0.0230	-0.3840	-0.3050	-0.4900
603	-0.0760	0.0600	0.0290	-0.3820	-0.3310	-0.4620
604	-0.0510	0.0760	0.0240	-0.3720	-0.3260	-0.5260
605	-0.0610	0.0690	0.0260	-0.3680	-0.3110	-0.5130
606	-0.0510	0.0750	0.0210	-0.3800	-0.3190	-0.5150
607	-0.0640	0.0660	0.0260	-0.3650	-0.3290	-0.5090
608	-0.0620	0.0670	0.0180	-0.3950	-0.3240	-0.4620
609	-0.0630	0.0730	0.0310	-0.3960	-0.3280	-0.4370
610	-0.0460	0.0830	0.0260	-0.4170	-0.2890	-0.4710
611	-0.0540	0.0700	0.0330	-0.3840	-0.2780	-0.4640
612	-0.0390	0.0880	0.0320	-0.4270	-0.2550	-0.4820
613	-0.0390	0.0880	0.0320	-0.4270	-0.2550	-0.4820
614	-0.0300	0.0730	0.0390	-0.3610	-0.2180	-0.4960
615	-0.0420	0.0800	0.0380	-0.3530	-0.2500	-0.4870
616	-0.0420	0.0800	0.0380	-0.3530	-0.2500	-0.4870
617	-0.0620	0.0780	0.0270	-0.3370	-0.3760	-0.3870
618	-0.0720	0.0600	0.0260	-0.3240	-0.3860	-0.3400
619	-0.0710	0.0650	0.0170	-0.3000	-0.3960	-0.3390
620	-0.0810	0.0530	0.0210	-0.3220	-0.4060	-0.3020
621	-0.0720	0.0730	0.0120	-0.3780	-0.4140	-0.3260
622	-0.0690	0.0670	0.0230	-0.3850	-0.3830	-0.3310
623	-0.0530	0.0840	0.0230	-0.4180	-0.3290	-0.3640
624	-0.0650	0.0710	0.0230	-0.4050	-0.3290	-0.3580
625	-0.0430	0.0980	0.0290	-0.4370	-0.2880	-0.4060
626	-0.0450	0.0830	0.0370	-0.4190	-0.2520	-0.4420
627	-0.0450	0.0830	0.0370	-0.4190	-0.2520	-0.4420
628	-0.0280	0.0820	0.0320	-0.4170	-0.1430	-0.4290
629	-0.0360	0.0860	0.0380	-0.4020	-0.1810	-0.4190
630	-0.0380	0.0730	0.0430	-0.3580	-0.2070	-0.3950
631	-0.0390	0.0750	0.0390	-0.3370	-0.2420	-0.4950
632	-0.0500	0.0700	0.0360	-0.3200	-0.2830	-0.3810
633	-0.0530	0.0620	0.0250	-0.2930	-0.3110	-0.3810
634	-0.0510	0.0590	0.0350	-0.2440	-0.2920	-0.3980
635	-0.0700	0.0450	0.0260	-0.2010	-0.3560	-0.3680
636	-0.0550	0.0500	0.0260	-0.2410	-0.3720	-0.3880
637	-0.0780	0.0450	0.0320	-0.2290	-0.4070	-0.3820
638	-0.0670	0.0500	0.0230	-0.2420	-0.3910	-0.3580
639	-0.0670	0.0520	0.0210	-0.2860	-0.3880	-0.3860
640	-0.0710	0.0580	0.0200	-0.3060	-0.3730	-0.3840
641	-0.0550	0.0550	0.0200	-0.3230	-0.3360	-0.3730
642	-0.0580	0.0670	0.0220	-0.3540	-0.3250	-0.3730
643	-0.0440	0.0660	0.0290	-0.3960	-0.2350	-0.3950
644	-0.0320	0.0870	0.0330	-0.4050	-0.2340	-0.4300
645	-0.0370	0.0750	0.0350	-0.4430	-0.2260	-0.4890
646	-0.0300	0.0880	0.0380	-0.4430	-0.2260	-0.4890
647	-0.0410	0.0750	0.0380	-0.3970	-0.1770	-0.4430
648	-0.0400	0.0830	0.0330	-0.3970	-0.1770	-0.4430
649	-0.0400	0.0740	0.0280	-0.3650	-0.2200	-0.4080
650	-0.0530	0.0690	0.0390	-0.3650	-0.2600	-0.3980
651	-0.0540	0.0750	0.0260	-0.3630	-0.2910	-0.3730
652	-0.0600	0.0650	0.0360	-0.3700	-0.3120	-0.3870
653	-0.0480	0.0820	0.0300	-0.3800	-0.2970	-0.3900
654	-0.0600	0.0700	0.0320	-0.4080	-0.3090	-0.4060
655	-0.0390	0.0830	0.0260	-0.4100	-0.2840	-0.3910
656	-0.0490	0.0730	0.0360	-0.4060	-0.2670	-0.4030
657	-0.0340	0.0820	0.0250	-0.4060	-0.2670	-0.4030
658	-0.0420	0.0720	0.0350	-0.3780	-0.2280	-0.3510
659	-0.0370	0.0690	0.0340	-0.3620	-0.2050	-0.3480
660	-0.0480	0.0670	0.0340	-0.3700	-0.2280	-0.3890
661	-0.0560	0.0670	0.0340	-0.3700	-0.2280	-0.3890
662	-0.0480	0.0840	0.0270	-0.3830	-0.2540	-0.3820
663	-0.0760	0.0840	0.0270	-0.3830	-0.2540	-0.3820
664	-0.0460	0.0820	0.0240	-0.4000	-0.3410	-0.4180
665	-0.0460	0.0820	0.0240	-0.4000	-0.3410	-0.4180
666	-0.0530	0.0710	0.0240	-0.4440	-0.2900	-0.4160
667	-0.0650	0.0870	0.0150	-0.4720	-0.2910	-0.3530
668	-0.0320	0.0910	0.0320	-0.5160	-0.2950	-0.3000
669	-0.0370	0.0910	0.0320	-0.5160	-0.2950	-0.3000
670	-0.0470	0.0970	0.0380	-0.4660	-0.2150	-0.3390
671	-0.0400	0.0900	0.0330	-0.4920	-0.1850	-0.3000
672	-0.0220	0.1030	0.0340	-0.4960	-0.1590	-0.3190
673	-0.0380	0.0860	0.0360	-0.4790	-0.1720	-0.2610
674	-0.0230	0.0970	0.0290	-0.4430	-0.1880	-0.3290
675	-0.0490	0.0780	0.0340	-0.3980	-0.2030	-0.3100
676	-0.0360	0.0800	0.0310	-0.3780	-0.2590	-0.3410
677	-0.0510	0.0790	0.0260	-0.3700	-0.2530	-0.3060
678	-0.0420	0.0570	0.0280	-0.3360	-0.2480	-0.3300
679	-0.0290	0.0660	0.0130	-0.3200	-0.2070	-0.4090
680	-0.0470	0.0510	0.0360	-0.3230	-0.1570	-0.3790
681	-0.0150	0.0650	0.0080	-0.3570	-0.1360	-0.3670
682	-0.0380	0.0660	0.0330	-0.3450	-0.1630	-0.3210
683	-0.0250	0.0760	0.0280	-0.3290	-0.2040	-0.3330
684	-0.0550	0.0670	0.0280	-0.3530	-0.2530	-0.2910
685	-0.0260	0.0740	0.0240	-0.3740	-0.2370	-0.3320
686	-0.0470	0.0690	0.0300	-0.3240	-0.2120	-0.3080
687	-0.0430	0.0550	0.0280	-0.3430	-0.2250	-0.2710
688	-0.0310	0.0850	0.0200	-0.3610	-0.2090	-0.3270
689	-0.0420	0.0650	0.0340	-0.3410	-0.2220	-0.3290
690	-0.0350	0.0790	0.0260	-0.3370	-0.2250	-0.4130
691	-0.0770	0.0490	0.0190	-0.3360	-0.3010	-0.3750
692	-0.0370	0.0780	0.0230	-0.3560	-0.2960	-0.3730
693	-0.0720	0.0490	0.0260	-0.2950	-0.3330	-0.2950
694	-0.0520	0.0640	0.0180	-0.3340	-0.3060	-0.3100
695	-0.0580	0.0710	0.0210	-0.3470	-0.2910	-0.3030
696	-0.0480	0.0650	0.0350	-0.3660	-0.2780	-0.2990
697	-0.0270	0.0780	0.0360	-0.3470	-0.2310	-0.3540
698	-0.0610	0.0670	0.0330	-0.3710	-0.2610	-0.3100
699	-0.0360	0.0840	0.0240	-0.3910	-0.2870	-0.3290
700	-0.0620	0.0670	0.0360	-0.3220	-0.3570	-0.2450
701	-0.0570	0.0630	0.0340	-0.3140	-0.3690	-0.2430
702	-0.0750	0.0730	0.0330	-0.3150	-0.4170	-0.2100
703	-0.0770	0.0500	0.0330	-0.2940	-0.3920	-0.1780
704	-0.0550	0.0710	0.0220	-0.2770	-0.3920	-0.1880
705	-0.0730	0.0440	0.0330	-0.2400	-0.3850	-0.1360
706	-0.0660	0.0520	0.0190	-0.2370	-0.3780	-0.1100
707	-0.0740	0.0410	0.0340	-0.2230	-0.3460	-0.0840
708	-0.0440	0.0480	0.0290	-0.2350	-0.3340	-0.1080
709	-0.0690	0.0510	0.0280	-0.2250	-0.3340	-0.0780
710	-0.0580	0.0390	0.0280	-0.2560	-0.3040	-0.0810
711	-0.0480	0.0640	0.0260	-0.2810	-0.3000	-0.0790
712	-0.0770	0.0490	0.0280	-0.2640	-0.3430	0.0340
713	-0.0510	0.0640	0.0400	-0.2880	-0.3360	0.0380
714	-0.0790	0.0590	0.0270	-0.3040	-0.3980	0.0310
715	-0.0510	0.0720	0.0310	-0.3430	-0.3600	0.0260
716	-0.0720	0.0640	0.0350	-0.3240	-0.3590	0.0680
717	-0.0550	0.0530	0.0320	-0.3240	-0.2750	0.0600
718	-0.0470	0.0670	0.0250	-0.3280	-0.2710	0.1100
719	-0.0580	0.0550	0.0370	-0.3110	-0.2600	0.1710
720	-0.0370	0.0790	0.0260	-0.3390	-0.2540	0.1540
721	-0.0630	0.0620	0.0310	-0.3300	-0.2930	0.2210
722	-0.0440	0.0760	0.0200	-0.3340	-0.2850	0.2410
723	-0.0590	0.0630	0.0360	-0.3330	-0.2810	0.2550
724	-0.0420	0.0670	0.0280	-0.3420	-0.2960	0.2970
725	-0.0660	0.0670	0.0320	-0.3550	-0.2960	0.3650
726	-0.0630	0.0550	0.0410	-0.3400	-0.3350	0.3950
727	-0.0450	0.0830	0.0290	-0.3640	-0.3330	0.3910
728	-0.0760	0.0540	0.0350	-0.3080	-0.3520	0.4280
729	-0.0450	0.0710	0.0180	-0.3360	-0.3400	0.3420
730	-0.0790	0.0540	0.0420	-0.2880	-0.3350	0.3930
731	-0.0440	0.0620	0.0220	-0.2930	-0.3350	0.3450
732	-0.0700	0.0490	0.0390	-0.2220	-0.3290	0.3430
733	-0.0500	0.0470	0.0240	-0.1910	-0.3410	0.3310
734	-0.0600	0.0450	0.0320	-0.1780	-0.3140	0.3310
735	-0.0500	0.0440	0.0280	-0.1960	-0.3400	0.3030
736	-0.0500	0.0450	0.0320	-0.1520	-0.2950	0.3230
737	-0.0550	0.0290	0.0260	-0.1960	-0.2870	0.3500
738	-0.0400	0.0530	0.0310	-0.1960	-0.2220	0.3000
739	-0.0520	0.0280	0.0310	-0.1660	-0.2350	0.3330
740	-0.0160	0.0470	0.0300	-0.1730	-0.1820	0.2830
741	-0.0540	0.0280	0.0280	-0.1560	-0.1970	0.2860
742	-0.0090	0.0440	0.0290	-0.1770	-0.1320	0.2260
743	-0.0460	0.0400	0.0400	-0.1160	-0.1920	0.2450
744	-0.0180	0.0330	0.0320	-0.1110	-0.1480	0.2250
745	-0.0180	0.0330	0.0320	-0.1110	-0.1480	0.2250
746	-0.0240	0.0180	0.0190	-0.0950	-0.2120	0.2000
747	-0.0550	0.0300	0.0260	-0.0520	-0.2500	0.1980
748	-0.0430	0.0100	0.0270	-0.0710	-0.2780	0.2060
749	-0.0390	0.0270	0.0160	-0.0890	-0.2420	0.1930
750	-0.0490	0.0120	0.0240	-0.1080	-0.2300	0.1560
751	-0.0240	0.0340	0.0220	-0.1240	-0.1740	0.1630
752	-0.0510	0.0160	0.0220	-0.1090	-0.1990	0.1570
753	-0.0180	0.0410	0.0160	-0.1390	-0.1790	0.1170
754	-0.0460	0.0360	0.0320	-0.1340	-0.1990	0.1220
755	-0.0150	0.0340	0.0270	-0.1390	-0.1710	0.0480
756	-0.0410	0.0250	0.0410	-0.1130	-0.1770	0.0080
757	-0.0410	0.0250	0.0410	-0.1130	-0.1770	0.0080
758	-0.0450	0.0330	0.0300	-0.1650	-0.1960	0.0170
759	-0.0440	0.0230	0.0270	-0.1640	-0.2430	0.0370
760	-0.0400	0.0480	0.0300	-0.1690	-0.2510	0.0000
761	-0.0610	0.0260	0.0270	-0.1940	-0.2790	0.0450
762	-0.0330	0.0610	0.0180	-0.2550	-0.2360	-0.0210
763	-0.0570	0.0340	0.0320	-0.2100	-0.2690	-0.0030
764	-0.0140	0.0510	0.0280	-0.2600	-0.1860	-0.0680
765	-0.0440	0.0570	0.0350	-0.2450	-0.1730	-0.0480
766	-0.0440	0.0570	0.0350	-0.2450	-0.1730	-0.0480
767	-0.0230	0.0520	0.0470	-0.2360	-0.0770	-0.0590
768	-0.0230	0.0520	0.0470	-0.2360	-0.0770	-0.0590
769	-0.0350	0.0350	0.0390	-0.1480	-0.0890	-0.0900
770	-0.0270	0.0220	0.0290	-0.1390	-0.1270	-0.0850
771	-0.0550	0.0370	0.0290	-0.1220	-0.2370	-0.0510
772	-0.0490	0.0220	0.0300	-0.1290	-0.2960	-0.0110
773	-0.0580	0.0450	0.0300	-0.1450	-0.3800	-0.0340
774	-0.0730	0.0160	0.0200	-0.1610	-0.3640	0.0634
775	-0.0470	0.0470	0.0190	-0.2170	-0.3270	-0.6200
776	-0.0680	0.0370	0.0320	-0.1860	-0.3260	0.0000
777	-0.0320	0.0430	0.0310	-0.1770	-0.2320	-0.0170
778	-0.0340	0.0330	0.0420	-0.1570	-0.1570	-0.0240
779	-0.0230	0.0450	0.0220	-0.1850	-0.1470	-0.0240
780	-0.0300	0.0280	0.0410	-0.1670	-0.1150	-0.0210
781	-0.0250	0.0310	0.0390	-0.1430	-0.1410	-0.0350
782	-0.0350	0.0310	0.0220	-0.1270	-0.1740	-0.0060
783	-0.0420	0.0260	0.0360	-0.1460	-0.1890	0.0060
784	-0.0390	0.0370	0.0190	-0.1580	-0.2720	0.0410
785	-0.0490	0.0300	0.0370	-0.1700	-0.2230	0.0410
786	-0.0260	0.0420	0.0210	-0.2160	-0.1920	0.0060
787	-0.0430	0.0250	0.0300	-0.1890	-0.1920	0.0060
788	-0.0210	0.0410	0.0140	-0.2010	-0.1170	0.0420
789	-0.0260	0.0400	0.0300	-0.2010	-0.1170	0.0420
790	0.0020	0.0500	0.0340	-0.1760	0.0000	0.0720
791	-0.0210	0.0360	0.0360	-0.1610	0.0950	0.0840
792	-0.0110	0.0340	0.0310	-0.1710	0.0950	0.0840
793	-0.0310	0.0320	0.0270	-0.1710	-0.0730	0.0440
794	-0.0200	0.0370	0.0340	-0.1760	-0.0920	0.0560
795	-0.0270	0.0430	0.0290	-0.1690	-0.1120	0.0510
796	-0.0400	0.0250	0.0360	-0.1650	-0.1540	0.0370
797	-0.0300	0.0380	0.0130	-0.1460	-0.1940	0.0650
798	-0.0490	0.0150	0.0300	-0.1460	-0.1940	0.0650
799	-0.0250	0.0330	0.0320	-0.1270	-0.1990	0.0790
800	-0.0410	0.0260	0.0340	-0.1270	-0.1990	0.0790
801	-0.0160	0.0350	0.0170	-0.1150	-0.1930	0.0470
802	-0.0400	0.0320	0.0170	-0.1150	-0.1930	0.0470
803	-0.0100	0.0300	0.0190	-0.1240	-0.1570	0.0250
804	-0.0340	0.0240	0.0190	-0.1240	-0.1570	0.0250
805	-0.0110	0.0300	0.0310	-0.1240	-0.1300	-0.0040
806	-0.0430	0.0280	0.0310	-0.1240	-0.1300	-0.0040
807	-0.0270	0.0180	0.0280	-0.1140	-0.1590	0.0150
808	-0.0270	0.0180	0.0280	-0.1140	-0.1590	0.0150
809	-0.0410	0.0070	0.0310	-0.1080	-0.1980	0.0090
810	-0.0340	0.0360	0.0240	-0.1250	-0.2130	-0.0060
811	-0.0430	0.0270	0.0200	-0.1510	-0.1730	0.0000
812	-0.0070	0.0470	0.0200	-0.1510	-0.1730	0.0000
813	-0.0290	0.0370	0.0220	-0.1840	-0.0870	-0.0600
814	0.0010	0.0500	0.0036	-0.1690	-0.1020	-0.0110
815	-0.0300	0.5000	0.0036	-0.1690	-0.1020	-0.0110
816	-0.0110	0.0490	0.0330	-0.2340	-0.0520	-0.0470
817	-0.0340	0.0490	0.0330	-0.2340	-0.0520	-0.0470
818	-0.0090	0.0590	0.0300	-0.2510	-0.1070	-0.0380
819	-0.0290	0.0590	0.0300	-0.2510	-0.1070	-0.0380
820	-0.0160	0.0480	0.0360	-0.2210	-0.0980	-0.0530
821	-0.0160	0.0480	0.0360	-0.2210	-0.0980	-0.0530
822	-0.0220	0.0480	0.0320	-0.2560	-0.0860	-0.0810
823	-0.0190	0.0480	0.0370	-0.2270	-0.0870	-0.0510
824	-0.0070	0.0560	0.0340	-0.2480	-0.0640	-0.0540
825	-0.0230	0.0450	0.0340	-0.2300	-0.0870	-0.0730
826	-0.0190	0.0520	0.0190	-0.2240	-0.1270	-0.0920
827	-0.0460	0.0450	0.0320	-0.2200	-0.1690	-0.0380
828	-0.0310	0.0460	0.0240	-0.1890	-0.2470	-0.0460
829	-0.0520	0.0370	0.0340	-0.1850	-0.2520	-0.0240
830	-0.0490	0.0400	0.0240	-0.1770	-0.2750	-0.0160
831	-0.0420	0.0310	0.0150	-0.1990	-0.2530	0.0020
832	-0.0420	0.0490	0.0290	-0.2000	-0.2260	-0.0110
833	-0.0360	0.0360	0.0260	-0.1620	-0.2270	0.0330
834	-0.0220	0.0490	0.0400	-0.1680	-0.1770	-0.0240
835	-0.0410	0.0360	0.0310	-0.1690	-0.1660	0.0170
836	-0.0340	0.0380	0.0310	-0.1870	-0.1670	-0.0180
837	-0.0310	0.0410	0.0250	-0.1770	-0.1840	-0.0080
838	-0.0520	0.0310	0.0350	-0.1310	-0.2400	-0.0090
839	-0.0370	0.0350	0.0250	-0.1320	-0.2860	-0.0170
840	-0.0540	0.0240	0.0350	-0.1390	-0.2360	0.0190
841	-0.0240	0.0370	0.0080	-0.1800	-0.1930	-0.0310
842	-0.0370	0.0300	0.0330	-0.1890	-0.1490	-0.0170
843	-0.0240	0.0380	0.0240	-0.1530	-0.1560	-0.0350
844	-0.0220	0.0340	0.0300	-0.1330	-0.1280	-0.0610
845	-0.0140	0.0390	0.0310	-0.1290	-0.0710	-0.0500
846	-0.0270	0.0240	0.0270	-0.1520	-0.0770	-0.0300
847	-0.0050	0.0370	0.0240	-0.1890	-0.0560	0.0100
848	-0.0330	0.0300	0.0390	-0.1610	-0.0980	0.0430
849	-0.0210	0.0400	0.0320	-0.1820	-0.1640	0.0060
850	-0.0310	0.0360	0.0320	-0.1820	-0.1520	0.0400
851	-0.0300	0.0330	0.0180	-0.1990	-0.1490	0.0210
852	-0.0290	0.0430	0.0140	-0.2430	-0.1470	-0.0030
853	-0.0290	0.0410	0.0330	-0.2370	-0.1330	0.0010
854	-0.0030	0.0570	0.0300	-0.2520	-0.0850	0.0230
855	-0.0120	0.0390	0.0410	-0.2090	-0.0370	0.0450
856	0.0030	0.0540	0.0260	-0.2400	-0.0220	-0.0090
857	-0.0250	0.0320	0.0300	-0.2100	-0.0320	0.0160
858	-0.0170	0.0510	0.0220	-0.1870	-0.0870	-0.0150
859	-0.0330	0.0260	0.0310	-0.1460	-0.1640	-0.0110
860	-0.0220	0.0470	0.0280	-0.1500	-0.1580	-0.0660
861	-0.0450	0.0260	0.0250	-0.1450	-0.1890	-0.0830
862	-0.0230	0.0360	0.0170	-0.2160	-0.1610	-0.0950
863	-0.0330	0.0410	0.0280	-0.2380	-0.1050	-0.0920
864	0.0070	0.0600	0.0260	-0.2700	-0.0510	-0.0860
865	-0.0110	0.0550	0.0370	-0.2080	-0.0230	-0.0400
866	0.0130	0.0510	0.0240	-0.2390	0.0190	-0.1220
867	-0.0060	0.0520	0.0360	-0.2100	0.0230	-0.1120
868	-0.0030	0.0460	0.0300	-0.2220	-0.0160	-0.1350
869	-0.0160	0.0570	0.0380	-0.2240	-0.0900	-0.1590
870	-0.0240	0.0390	0.0360	-0.1850	-0.1270	-0.1610
871	-0.0200	0.0530	0.0170	-0.2220	-0.1530	-0.1770
872	-0.0320	0.0280	0.0150	-0.2160	-0.1240	-0.1680
873	-0.0120	0.0480	0.0190	-0.2780	-0.0850	-0.1910
874	-0.0270	0.0520	0.0270	-0.2860	-0.1010	-0.1470
875	0.0040	0.0730	0.0260	-0.2970	-0.0370	-0.1930
876	-0.0060	0.0590	0.0350	-0.2730	0.0230	-0.1640
877	0.0220	0.0730	0.0220	-0.3120	0.1020	-0.2270
878	0.0070	0.0580	0.0270	-0.3380	0.1110	-0.2220
879	0.0210	0.0650	0.0280	-0.3520	0.1220	-0.2410
880	-0.0100	0.0620	0.0310	-0.3620	0.0470	-0.2410
881	0.0060	0.0750	0.0260	-0.3790	0.0040	-0.2400
882	-0.0110	0.0730	0.0310	-0.3850	0.0030	-0.2000
883	0.0000	0.0750	0.0160	-0.3860	-0.0120	-0.2250
884	-0.0110	0.0660	0.0240	-0.3460	0.0020	-0.2070
885	-0.0070	0.0670	0.0340	-0.3630	-0.0370	-0.2080
886	0.0010	0.0740	0.0320	-0.3640	-0.0160	-0.2190
887	0.0030	0.0700	0.0420	-0.3350	0.0590	-0.1970
888	0.0170	0.0710	0.0230	-0.3680	0.0620	-0.2100
889	-0.0060	0.0660	0.0320	-0.3660	0.0280	-0.1900
890	0.0020	0.0700	0.0280	-0.3280	-0.0050	-0.2060
891	-0.0130	0.0540	0.0360	-0.2950	-0.0350	-0.1900
892	-0.0120	0.0690	0.0280	-0.2800	-0.0960	-0.2260
893	-0.0250	0.0500	0.0240	-0.3100	-0.0970	-0.2040
894	-0.0070	0.0550	0.0300	-0.3070	-0.0480	-0.2500
895	-0.0160	0.0550	0.0250	-0.3410	-0.0430	-0.2460
896	0.0050	0.0670	0.0320	-0.3170	-0.0110	-0.2250
897	-0.0010	0.0600	0.0360	-0.2870	0.0300	-0.2010
898	0.0080	0.0690	0.0200	-0.2680	-0.0070	-0.2020
899	-0.0100	0.0490	0.0310	-0.2640	0.0000	-0.1480
900	-0.0170	0.0590	0.0400	-0.3050	-0.0740	-0.1780
901	-0.0290	0.0500	0.0190	-0.2590	-0.1830	-0.2040
902	-0.0370	0.0530	0.0400	-0.2520	-0.2320	-0.2350
903	-0.0410	0.0500	0.0240	-0.2610	-0.2680	-0.2100
904	-0.0590	0.0500	0.0200	-0.3130	-0.2590	-0.2400
905	-0.0350	0.0490	0.0170	-0.3030	-0.2260	-0.2210
906	-0.0450	0.0540	0.0260	-0.3180	-0.1740	-0.2130
907	-0.0180	0.0750	0.0220	-0.2940	-0.1990	-0.2310
908	-0.0390	0.0530	0.0400	-0.2650	-0.1590	-0.2220
909	-0.0100	0.0610	0.0300	-0.2620	-0.1140	-0.3270
910	-0.0310	0.0460	0.0260	-0.2750	-0.1250	-0.3180
911	-0.0350	0.0580	0.0220	-0.2880	-0.1580	-0.3340
912	-0.0500	0.0530	0.0260	-0.2830	-0.2320	-0.3290
913	-0.0410	0.0600	0.0280	-0.2530	-0.2730	-0.3400
914	-0.0410	0.0480	0.0350	-0.2440	-0.2500	-0.3340
915	-0.0250	0.0540	0.0280	-0.2750	-0.1760	-0.3250
916	-0.0490	0.0550	0.0220	-0.2950	-0.1810	-0.3310
917	-0.0260	0.0550	0.0240	-0.2660	-0.1920	-0.3170
918	-0.0410	0.0560	0.0390	-0.2750	-0.1500	-0.3080
919	-0.0230	0.0560	0.0390	-0.2780	-0.1990	-0.3300
920	-0.0460	0.0540	0.0370	-0.2580	-0.2040	-0.3030
921	-0.0420	0.0450	0.0370	-0.2300	-0.2050	-0.3010
922	-0.0500	0.0520	0.0060	-0.2320	-0.2820	-0.3240
923	-0.0480	0.0450	0.0280	-0.2370	-0.3060	-0.3130
924	-0.0580	0.0600	0.0340	-0.3090	-0.2820	-0.3200
925	-0.0580	0.0600	0.0340	-0.3090	-0.2820	-0.3200
926	-0.0330	0.0790	0.0250	-0.3350	-0.2370	-0.3200
927	-0.0330	0.0790	0.0250	-0.3350	-0.2370	-0.3200
928	-0.0230	0.0600	0.0150	-0.2950	-0.2050	-0.2990
929	-0.0600	0.0560	0.0250	-0.3290	-0.2180	-0.2610
930	-0.0400	0.0620	0.0150	-0.3370	-0.2400	-0.2440
931	-0.0670	0.0610	0.0380	-0.3570	-0.3010	-0.2040
932	-0.0470	0.0670	0.0260	-0.3440	-0.3630	-0.1830
933	-0.0670	0.0550	0.0390	-0.3340	-0.3430	-0.1920
934	-0.0450	0.0630	0.0190	-0.3580	-0.3110	-0.2140
935	-0.0550	0.0830	0.0180	-0.4100	-0.2370	-0.1990
936	-0.0550	0.0830	0.0180	-0.4100	-0.2370	-0.1990
937	-0.0520	0.0680	0.0310	-0.3840	-0.2070	-0.1650
938	-0.0380	0.0720	0.0370	-0.4090	-0.2010	-0.1300
939	-0.0560	0.0710	0.0330	-0.3740	-0.3070	-0.0970
940	-0.0560	0.0770	0.0320	-0.3900	-0.3230	-0.0370
941	-0.0490	0.0800	0.0260	-0.4200	-0.3090	-0.0240
942	-0.0620	0.0760	0.0150	-0.4880	-0.2550	-0.0240
943	-0.0550	0.0880	0.0190	-0.4820	-0.2530	-0.0670
944	-0.0610	0.0710	0.0260	-0.4690	-0.2910	-0.0670
945	-0.0340	0.1040	0.0350	-0.4740	-0.2640	-0.0580
946	-0.0540	0.0790	0.0390	-0.4570	-0.2810	-0.0280
947	-0.0420	0.0980	0.0280	-0.4810	-0.2710	-0.0730
948	-0.0650	0.0780	0.0390	-0.4370	-0.2700	-0.0060
949	-0.0480	0.0960	0.0140	-0.4530	-0.3060	-0.0860
950	-0.0570	0.0800	0.0260	-0.4620	-0.3250	-0.0790
951	-0.0610	0.0860	0.0270	-0.4610	-0.3430	-0.0790
952	-0.0700	0.0830	0.0390	-0.4420	-0.3520	-0.1290
953	-0.0480	0.0960	0.0300	-0.4100	-0.3760	-0.1290
954	-0.0640	0.0830	0.0420	-0.3630	-0.3590	-0.2880
955	-0.0520	0.0790	0.0260	-0.3760	-0.3590	-0.2880
956	-0.0840	0.0660	0.0320	-0.3670	-0.3870	-0.2980
957	-0.0670	0.0640	0.0170	-0.3970	-0.3870	-0.2980
958	-0.1030	0.0690	0.0180	-0.3610	-0.5110	-0.2870
959	-0.0910	0.0610	0.0290	-0.3530	-0.5110	-0.2870
960	-0.0970	0.0700	0.0330	-0.3400	-0.5340	-0.2950
961	-0.0900	0.0590	0.0250	-0.3500	-0.5340	-0.2950
962	-0.0910	0.0810	0.0250	-0.3790	-0.5210	-0.2870
963	-0.1000	0.0700	0.0210	-0.4230	-0.5200	-0.3180
964	-0.0710	0.0970	0.0130	-0.4660	-0.4940	-0.2900
965	-0.0830	0.0890	0.0180	-0.4670	-0.4540	-0.3530
966	-0.0530	0.0950	0.0280	-0.4540	-0.4540	-0.3530
967	-0.0870	0.0820	0.0450	-0.4540	-0.3910	-0.4610
968	-0.0690	0.0950	0.0350	-0.4540	-0.3910	-0.4610
969	-0.0950	0.0830	0.0360	-0.4590	-0.4440	-0.4610
970	-0.0800	0.0890	0.0360	-0.4590	-0.4440	-0.4610
971	-0.0980	0.0750	0.0170	-0.4510	-0.4840	-0.4590
972	-0.0850	0.0840	0.0170	-0.4510	-0.4840	-0.4590
973	-0.0890	0.0810	0.0350	-0.4590	-0.4880	-0.4880
974	-0.0820	0.0910	0.0350	-0.4590	-0.4880	-0.4880
975	-0.0900	0.0860	0.0310	-0.4730	-0.5090	-0.5100
976	-0.0780	0.0860	0.0310	-0.4730	-0.5090	-0.5100
977	-0.0810	0.0780	0.0380	-0.4030	-0.4610	-0.5960
978	-0.0840	0.0780	0.0380	-0.4030	-0.4610	-0.5960
979	-0.0940	0.0770	0.0180	-0.4610	-0.4500	-0.6160
980	-0.0950	0.0820	0.0240	-0.4590	-0.4630	-0.5720
981	-0.0980	0.0820	0.0280	-0.4380	-0.5210	-0.5470
982	-0.1030	0.0820	0.0200	-0.4280	-0.5750	-0.5140
983	-0.1030	0.0820	0.0200	-0.4280	-0.5750	-0.5140
984	-0.1150	0.0810	0.0210	-0.4420	-0.6150	-0.5230
985	-0.1150	0.0810	0.0210	-0.4420	-0.6150	-0.5230
986	-0.1130	0.0810	0.0270	-0.4140	-0.6670	-0.5600
987	-0.1130	0.0780	0.0310	-0.3640	-0.6770	-0.5970
988	-0.1170	0.0750	0.0310	-0.3440	-0.6930	-0.6440
989	-0.1310	0.0630	0.0370	-0.3150	-0.6940	-0.6730
990	-0.1140	0.0640	0.0300	-0.2810	-0.6980	-0.6950
991	-0.1210	0.0580	0.0350	-0.2730	-0.6960	-0.7340
992	-0.1250	0.0600	0.0320	-0.2650	-0.7030	-0.7280
993	-0.1120	0.0590	0.0320	-0.2840	-0.6840	-0.7550
994	-0.1230	0.0570	0.0320	-0.2770	-0.6900	-0.7580
995	-0.1200	0.0630	0.0280	-0.2850	-0.6950	-0.7430
996	-0.1210	0.0470	0.0300	-0.2700	-0.6890	-0.7530
997	-0.1180	0.0640	0.0350	-0.2890	-0.6520	-0.7440
998	-0.1060	0.0630	0.0220	-0.2920	-0.6550	-0.7500
999	-0.1120	0.0490	0.0340	-0.2720	-0.6340	-0.7360
1000	-0.1160	0.0660	0.0220	-0.2980	-0.6700	-0.7470
count	accelx	accely	accelz	roll	pitch	heading
1	-0.0750	0.0450	0.0310	-0.1390	-0.3930	-0.1750
2	-0.0710	0.0320	0.0320	-0.1350	-0.3920	-0.1960
3	-0.0710	0.0310	0.0320	-0.1320	-0.3920	-0.2210
4	-0.0710	0.0320	0.0320	-0.1300	-0.3950	-0.2360
5	-0.0710	0.0310	0.0320	-0.1260	-0.3990	-0.2470
6	-0.0710	0.0320	0.0330	-0.1340	-0.3990	-0.2260
7	-0.0710	0.0320	0.0310	-0.1350	-0.4020	-0.2240
8	-0.0720	0.0320	0.0310	-0.1320	-0.4050	-0.1830
9	-0.0710	0.0310	0.0290	-0.1310	-0.4010	-0.1700
10	-0.0710	0.0310	0.0300	-0.1340	-0.4000	-0.1400
11	-0.0710	0.0310	0.0310	-0.1320	-0.3970	-0.1270
12	-0.0690	0.0320	0.0320	-0.1370	-0.3970	-0.1280
13	-0.0700	0.0320	0.0330	-0.1390	-0.4030	-0.0900
14	-0.0700	0.0320	0.0310	-0.1390	-0.3980	-0.0720
15	-0.0700	0.0330	0.0320	-0.1400	-0.3990	-0.0770
16	-0.0720	0.0330	0.0330	-0.1410	-0.4040	-0.0370
17	-0.0730	0.0340	0.0330	-0.1420	-0.4010	-0.0140
18	-0.0730	0.0350	0.0320	-0.1410	-0.4050	-0.0020
19	-0.0710	0.0350	0.0330	-0.1410	-0.3990	0.0060
20	-0.0710	0.0340	0.0320	-0.1390	-0.4010	0.0020
21	-0.0720	0.0330	0.0320	-0.1410	-0.3980	-0.0220
22	-0.0710	0.0330	0.0340	-0.1400	-0.4010	-0.0310
23	-0.0720	0.0330	0.0340	-0.1360	-0.4020	-0.0210
24	-0.0730	0.0320	0.0310	-0.1370	-0.4070	-0.0230
25	-0.0740	0.0310	0.0310	-0.1320	-0.4070	-0.0070
26	-0.0740	0.0300	0.0310	-0.1320	-0.4120	0.0020
27	-0.0740	0.0310	0.0290	-0.1350	-0.4110	0.0070
28	-0.0750	0.0310	0.0300	-0.1370	-0.4150	0.0290
29	-0.0750	0.0310	0.0310	-0.1390	-0.4140	0.0390
30	-0.0750	0.0310	0.0320	-0.1400	-0.4160	0.0740
31	-0.0740	0.0330	0.0290	-0.1460	-0.4140	0.0710
32	-0.0730	0.0340	0.0290	-0.1470	-0.4130	0.0570
33	-0.0740	0.0360	0.0280	-0.1520	-0.4160	0.0630
34	-0.0740	0.0350	0.0290	-0.1520	-0.4180	0.0760
35	-0.0760	0.0330	0.0290	-0.1480	-0.4210	0.0750
36	-0.0750	0.0330	0.0290	-0.1430	-0.4190	0.1340
37	-0.0750	0.0330	0.0300	-0.1430	-0.4160	0.1410
38	-0.0770	0.0330	0.0310	-0.1420	-0.4200	0.1710
39	-0.0780	0.0330	0.0320	-0.1460	-0.4160	0.1910
40	-0.0760	0.0350	0.0310	-0.1490	-0.4160	0.2050
41	-0.0750	0.0340	0.0300	-0.1430	-0.4180	0.2140
42	-0.0740	0.0340	0.0310	-0.1460	-0.4150	0.2100
43	-0.0730	0.0320	0.0310	-0.1440	-0.4150	0.2330
44	-0.0730	0.0340	0.0330	-0.1490	-0.4140	0.2920
45	-0.0730	0.0340	0.0320	-0.1490	-0.4120	0.2950
46	-0.0740	0.0330	0.0330	-0.1470	-0.4150	0.2980
47	-0.0740	0.0330	0.0310	-0.1500	-0.4150	0.2980
48	-0.0730	0.0340	0.0320	-0.1460	-0.4120	0.2970
49	-0.0720	0.0350	0.0320	-0.1500	-0.4090	0.3090
50	-0.0730	0.0330	0.0310	-0.1460	-0.4070	0.2930
51	-0.0720	0.0320	0.0320	-0.1470	-0.4040	0.2720
52	-0.0720	0.0320	0.0310	-0.1460	-0.4030	0.2690
53	-0.0740	0.0320	0.0320	-0.1470	-0.4060	0.2400
54	-0.0730	0.0330	0.0320	-0.1490	-0.4050	0.1440
55	-0.0740	0.0340	0.0320	-0.1530	-0.4060	0.1180
56	-0.0720	0.0340	0.0330	-0.1540	-0.4040	0.0950
57	-0.0720	0.0350	0.0340	-0.1570	-0.4030	0.0810
58	-0.0720	0.0350	0.0330	-0.1590	-0.4050	0.0110
59	-0.0740	0.0350	0.0310	-0.1580	-0.4120	-0.0090
60	-0.0730	0.0350	0.0300	-0.1610	-0.4090	-0.0030
61	-0.0730	0.0350	0.0310	-0.1640	-0.4080	-0.0210
62	-0.0730	0.0350	0.0300	-0.1630	-0.4050	-0.0230
63	-0.0730	0.0350	0.0310	-0.1610	-0.4040	0.0070
64	-0.0730	0.0360	0.0320	-0.1630	-0.4060	-0.0440
65	-0.0720	0.0370	0.0320	-0.1620	-0.4040	-0.0540
66	-0.0710	0.0380	0.0330	-0.1630	-0.4000	-0.0430
67	-0.0700	0.0370	0.0310	-0.1610	-0.4100	-0.0740
68	-0.0650	0.0390	0.0280	-0.1690	-0.3820	-0.0990
69	-0.0750	0.0350	0.0320	-0.1790	-0.3630	-0.0980
70	-0.0600	0.0410	0.0340	-0.1890	-0.3200	-0.0980
71	-0.0560	0.0400	0.0230	-0.1780	-0.3700	-0.1100
72	-0.0620	0.0460	0.0320	-0.1870	-0.3770	-0.1420
73	-0.0710	0.0430	0.0250	-0.1780	-0.3990	-0.1590
74	-0.0800	0.0380	0.0290	-0.1770	-0.4210	-0.1190
75	-0.0770	0.0380	0.0310	-0.1630	-0.4280	-0.1590
76	-0.0710	0.0510	0.0250	-0.2120	-0.4290	-0.2580
77	-0.0750	0.0460	0.0350	-0.1930	-0.4230	-0.2350
78	-0.0810	0.0380	0.0240	-0.1830	-0.4540	-0.2460
79	-0.0820	0.0460	0.0290	-0.1860	-0.4600	-0.2650
80	-0.0830	0.0390	0.0290	-0.1640	-0.4590	-0.2630
81	-0.0740	0.0360	0.0260	-0.1610	-0.4470	-0.2840
82	-0.0800	0.0460	0.0300	-0.1660	-0.4400	-0.2800
83	-0.0790	0.0350	0.0310	-0.1640	-0.4480	-0.2760
84	-0.0780	0.0370	0.0270	-0.1870	-0.4450	-0.2760
85	-0.0860	0.0390	0.0300	-0.1720	-0.4310	-0.2250
86	-0.0640	0.0340	0.0220	-0.1800	-0.4100	-0.2250
87	-0.0770	0.0400	0.0300	-0.1840	-0.4330	-0.2250
88	-0.0790	0.0400	0.0290	-0.1980	-0.4110	-0.2670
89	-0.0680	0.0360	0.0310	-0.1890	-0.4210	-0.2450
90	-0.0820	0.0420	0.0300	-0.1970	-0.4270	-0.2750
91	-0.0620	0.0460	0.0290	-0.2070	-0.4210	-0.2140
92	-0.0710	0.0380	0.0280	-0.1960	-0.4010	-0.2650
93	-0.0840	0.0440	0.0340	-0.1910	-0.4240	-0.2970
94	-0.0630	0.0340	0.0300	-0.1850	-0.4280	-0.3040
95	-0.0890	0.0480	0.0290	-0.1840	-0.4280	-0.3040
96	-0.0710	0.0410	0.0270	-0.1740	-0.4500	-0.2670
97	-0.0810	0.0400	0.0310	-0.1760	-0.4510	-0.2820
98	-0.0810	0.0410	0.0310	-0.1580	-0.4510	-0.2900
99	-0.0880	0.0310	0.0290	-0.1620	-0.4760	-0.3300
100	-0.0850	0.0410	0.0330	-0.1420	-0.4880	-0.2810
101	-0.0860	0.0280	0.0300	-0.1320	-0.4880	-0.2810
102	-0.0880	0.0260	0.0280	-0.1120	-0.4860	-0.2670
103	-0.0810	0.0340	0.0300	-0.1170	-0.5030	-0.2600
104	-0.0980	0.0200	0.0330	-0.1260	-0.4860	-0.2800
105	-0.0770	0.0350	0.0200	-0.1080	-0.4680	-0.2370
106	-0.0880	0.0310	0.0350	-0.1310	-0.4690	-0.2790
107	-0.0760	0.0300	0.0280	-0.1290	-0.4610	-0.2780
108	-0.0840	0.0310	0.0330	-0.1290	-0.4610	-0.2780
109	-0.0790	0.0370	0.0330	-0.1190	-0.4830	-0.2880
110	-0.1000	0.0120	0.0310	-0.1120	-0.5140	-0.2510
111	-0.0830	0.0350	0.0280	-0.0900	-0.5320	-0.2240
112	-0.1040	0.0130	0.0250	-0.0930	-0.5350	-0.2890
113	-0.0970	0.0190	0.0370	-0.0410	-0.5510	-0.2590
114	-0.0870	0.0290	0.0370	-0.0410	-0.5510	-0.2590
115	-0.1000	0.0050	0.0480	-0.0480	-0.5230	-0.3550
116	-0.0910	0.0150	0.0410	-0.0180	-0.5200	-0.3580
117	-0.0840	0.0430	0.0240	-0.0660	-0.5240	-0.3930
118	-0.0990	0.0200	0.0240	-0.0660	-0.5240	-0.3930
119	-0.1140	0.0200	0.0410	-0.0960	-0.5400	-0.3500
120	-0.0810	0.0290	0.0410	-0.0960	-0.5400	-0.3500
121	-0.1040	0.0290	0.0320	-0.1200	-0.5410	-0.3350
122	-0.1270	-0.0800	0.0220	-0.0680	-0.6180	-0.3240
123	-0.1070	0.0000	0.0340	0.0110	-0.5960	-0.2830
124	-0.0890	-25.0000	0.0300	-0.0120	-0.6520	-0.3590
125	-0.1230	-0.0020	0.0470	0.0540	-0.6120	-0.3330
126	-0.1090	-0.0020	0.0130	0.1050	-0.6410	-0.3060
127	-0.1100	-0.0020	0.0130	0.1050	-0.6410	-0.3060
128	-0.0900	-0.0270	0.0370	0.1120	-0.5910	-0.3020
129	-0.1970	-0.0070	0.0380	0.1190	-0.6420	-0.3330
130	-0.1030	-0.0050	0.0330	0.1430	-0.5830	-0.3100
131	-0.1270	-0.0140	0.0070	0.1760	-0.6480	-0.3280
132	-0.1160	-0.0210	0.0140	0.1660	-0.6720	-0.2490
133	-0.1160	-0.0210	0.0140	0.1660	-0.6720	-0.2490
134	-0.1010	0.0040	0.0440	0.0980	-0.7200	-0.3820
135	-0.1420	0.0030	0.0450	0.1480	-0.7590	-0.2620
136	-0.0740	-0.0150	0.0110	0.1330	-0.5520	-0.3670
137	-0.1070	0.0230	0.0080	0.0650	-0.5730	-0.4150
138	-0.1310	-0.0220	0.0230	0.0140	-0.6170	-0.2850
139	-0.1290	-0.0330	0.0270	0.0310	-0.5760	-0.2590
140	-0.0980	-0.0070	0.0380	-0.0370	-0.5700	-0.3270
141	-0.0800	-0.0090	0.0380	0.0160	-0.5870	-0.3580
142	-0.0840	0.0380	0.0450	0.1660	-0.4490	-0.4220
143	-0.0870	0.0410	0.0260	0.1990	-0.4130	-0.4570
144	-0.0650	-0.0200	0.0790	0.1420	-0.6030	-0.4680
145	-0.1570	-0.0190	0.0130	0.1550	-0.6880	-0.3810
146	-0.1170	-0.0290	-0.0160	0.0920	-0.5530	-0.4460
147	-0.0550	-0.0620	0.0190	0.1550	-0.4190	-0.4510
148	-0.0860	-0.0410	-0.0180	-0.0150	-0.2010	-0.4600
149	-0.0080	-0.0090	-0.0090	-0.2270	-0.0320	-0.5390
150	0.0200	0.0330	0.0370	-0.3100	-0.0680	-0.5460
151	-0.0360	0.0340	-0.0260	-0.2420	-0.0920	-0.5270
152	0.0180	0.0510	0.0030	-0.3430	0.0730	-0.5960
153	0.0480	0.0630	-0.0040	-0.3750	0.0210	-0.6790
154	-0.0140	0.0910	0.0100	-0.4570	0.0310	-0.6760
155	0.0130	0.0550	-0.0420	-0.4930	-0.0540	-0.6630
156	0.0240	0.0910	0.0320	-0.6290	-0.1510	-0.6520
157	-0.0620	0.1300	0.0050	-0.6660	-0.2850	-0.5740
158	-0.0470	0.1160	0.0130	-0.7500	-0.1750	-0.6120
159	-0.0330	0.1070	-0.0190	-0.9250	-0.0060	-0.7030
160	0.0530	0.1590	0.0370	-0.9340	0.1400	-0.7470
161	0.0560	0.1770	-0.0120	-1.1200	0.4540	-0.6880
162	0.0880	0.1720	-0.0570	-1.2800	0.4670	-0.6340
163	0.0190	0.2150	0.0110	-1.2360	0.3820	-0.5210
164	0.1430	0.2480	0.0650	-1.3700	0.4340	-0.5970
165	0.0850	0.2820	0.0310	-1.2520	0.5240	-0.5720
166	0.0840	0.2430	0.0250	-1.2700	0.7430	-0.5520
167	0.1380	0.2020	0.0130	-1.4830	0.7540	-0.4380
168	0.1430	0.3070	0.0010	-1.4520	0.8270	-0.4690
169	0.0860	0.2580	0.1000	-1.1730	0.6660	-0.4300
170	0.1350	0.1450	0.0130	-1.1530	0.6270	-0.3830
171	0.0860	0.1940	-0.0010	-1.3220	0.8090	-0.3750
172	0.0980	0.2000	-0.0190	-1.5810	0.5680	-0.1970
173	0.2550	0.2760	0.0870	-1.5850	0.4000	-0.1690
174	0.0810	0.3420	0.0080	-1.4900	0.4670	-0.2500
175	0.1230	0.3220	0.1190	-1.5130	0.7360	-0.4150
176	0.1570	0.2300	-0.0040	-1.2850	0.9830	-0.4500
177	0.1060	0.1900	-0.0180	-1.3170	1.0180	-0.3130
178	0.2450	0.1470	0.0170	-1.2630	1.3740	-0.3410
179	0.1760	0.2120	-0.0030	-1.4130	1.1230	-0.3390
180	0.2490	0.2240	0.0510	-1.0670	1.0260	-0.5760
181	0.1200	0.2730	0.0390	-0.9380	1.2100	-0.7290
182	0.2970	0.2430	0.0270	-1.2360	1.5300	-0.6600
183	0.2130	0.1330	-0.0060	-1.1600	1.5740	-0.4030
184	0.2940	0.1220	-0.0050	-1.3020	1.6390	-0.4320
185	0.2470	0.1790	0.0080	-0.9650	1.6500	-0.3640
186	0.3990	0.2540	0.0330	-0.9610	1.6650	-0.5310
187	0.2100	0.2090	0.1010	-0.7550	1.3690	-0.4450
188	0.2620	0.1150	0.0140	-0.5280	1.6110	-0.5170
189	0.2160	0.0420	0.0500	-0.6170	1.2740	-0.3890
190	0.2940	0.0440	-0.0020	-0.4430	1.6270	-0.3970
191	0.2330	0.1290	0.0040	-0.3970	1.5240	-0.4190
192	0.1540	0.0660	0.0120	-0.2790	0.9330	-0.3170
193	0.2140	0.0900	0.0730	-0.3830	1.1700	-0.4510
194	0.1720	0.0370	0.0000	-0.4480	1.0170	-0.4080
195	0.2430	0.1610	0.0050	-0.5660	1.3440	-0.5460
196	0.1530	0.0740	0.0820	-0.2010	0.8960	-0.6900
197	0.1930	-0.0270	-0.0630	0.0050	1.1950	-0.6910
198	0.1630	0.0400	0.0470	-0.0680	1.0920	-0.7170
199	0.3010	0.0410	0.0960	-0.1580	1.3710	-0.9930
200	0.1460	-0.0540	-0.0140	0.3400	1.4430	-0.9750
201	0.1460	-0.0540	-0.0140	0.3400	1.4430	-0.9750
202	0.1980	-0.0180	0.0350	0.1610	1.1910	-0.8600
203	0.1980	-0.0180	0.0350	0.1610	1.1910	-0.8600
204	0.1550	-0.0960	-0.1020	0.4680	1.4810	-0.7310
205	0.1550	-0.0960	-0.1020	0.4680	1.4810	-0.7310
206	0.2550	-0.1030	0.0640	0.8680	1.5890	-0.8210
207	0.2550	-0.1030	0.0640	0.8680	1.5890	-0.8210
208	0.2670	-0.2360	0.0220	0.9120	1.3080	-0.8940
209	0.2670	-0.2360	0.0220	0.9120	1.3080	-0.8940
210	0.1470	-0.1260	0.0290	1.0530	1.3050	-0.9070
211	0.2130	-0.1500	-0.0020	0.6790	1.0370	-0.7890
212	0.2700	-0.0580	0.2360	0.5730	1.1960	-0.9650
213	0.2360	-0.2370	0.0190	1.3540	1.4520	-0.8910
214	0.1470	-0.1880	0.0660	0.8760	0.9430	-0.6750
215	0.1890	-0.1190	0.0790	0.8870	1.0350	-0.7810
216	0.1970	-0.2270	0.0110	1.5600	1.0330	-0.7810
217	0.1590	-0.2650	0.0270	1.6800	0.6800	-0.8390
218	0.1210	-0.2830	0.0810	1.5110	0.7910	-0.8390
219	0.0480	-0.2110	0.0440	1.4960	0.5770	-0.7060
220	0.1230	-0.2280	0.0150	1.8790	0.6270	-0.7060
221	0.0720	-0.3230	0.0410	1.9170	0.6260	-0.9280
222	0.0060	-0.2890	0.0820	1.5940	-626.0000	-0.9280
223	-0.0130	-0.2350	0.0360	1.4440	0.1440	-0.7150
224	0.0190	-0.2730	0.0000	1.9660	0.1440	-0.7150
225	0.0250	-0.3700	0.0060	1.9800	0.3263	-0.4900
226	0.0400	-0.4030	0.0350	2.1400	0.3263	-0.4900
227	0.0490	-0.3070	-0.0040	1.7640	-0.1000	-0.5510
228	0.0060	-0.2930	0.0740	1.4860	0.0000	-0.5830
229	-0.0080	-0.2220	-0.0400	1.4500	55.0000	-0.6280
230	0.0540	-0.2520	0.0280	1.7820	0.0000	-0.6280
231	0.0760	-0.3530	-0.0641	1.7820	0.0000	-0.6280
232	0.0930	-0.3110	0.0210	1.6021	0.6740	-0.6820
233	0.1070	-0.2780	-0.0100	1.6021	0.6740	-0.6820
234	0.0670	-0.3160	-0.0400	1.4930	0.7180	-0.6980
235	0.0670	-0.3160	-0.0400	1.4930	0.7180	-0.6980
236	0.0720	-0.3000	0.0240	1.6830	0.5460	-0.5060
237	0.1420	-0.1730	0.0230	1.5610	0.4810	-0.5060
238	0.0050	-0.1790	0.0580	1.6350	0.3630	-0.7120
239	-0.0080	-0.2690	0.0520	1.5910	0.0000	-0.7120
240	-0.0070	-0.2500	0.0570	1.3480	0.0470	0.0000
241	-0.0680	-0.1600	0.0110	1.1840	-47.0000	0.0000
242	-0.0900	-0.3200	0.0670	1.7260	-0.6060	-0.5620
243	-0.2090	-0.3600	0.0260	2.2900	-0.6060	-0.5620
244	-0.1190	-0.3750	-0.0110	2.5100	-0.9200	-0.6970
245	-0.1850	-0.4270	0.0620	2.9010	-0.9200	-0.6970
246	-0.2090	-0.3600	0.0380	2.3030	-1.1060	-0.8920
247	-0.2960	-0.5630	0.0110	2.2910	-1.2180	-0.8650
248	-0.3150	-0.4340	-0.0330	0.2910	-1.2180	-0.8650
249	-0.2580	-0.3560	-0.0100	2.3450	-1.8570	-0.4630
250	-0.2610	-0.5130	-0.0100	2.3450	-1.8570	-0.4630
251	-0.1930	-0.4530	0.0020	2.6460	-1.4330	-0.4700
252	-0.2380	-0.5020	0.0020	2.6460	-1.4330	-0.4700
253	-0.1960	-0.3890	0.0240	2.7340	-0.9230	-0.6320
254	-0.1440	-0.3880	0.0240	2.7340	-0.9230	-0.6320
255	-0.2380	-0.4020	0.0100	2.0710	-0.9610	-0.5630
256	-0.1340	-0.4700	0.0100	2.0710	-0.9610	-0.5630
257	-0.1160	-0.4580	0.0270	2.4160	-0.7890	-0.4150
258	-0.0330	-0.4580	0.0270	2.4160	-0.7890	-0.4150
259	-0.0910	-0.5150	0.0580	2.7010	-0.1780	-0.5170
260	-0.0360	-0.5150	0.0580	2.7010	-0.1780	-0.5170
261	-0.0340	-0.4220	0.0420	2.8110	-0.3710	-0.5430
262	-0.0980	-0.3280	0.0140	2.8390	-0.2970	-0.5380
263	-0.0910	-0.5490	0.0140	2.8390	-0.2970	-0.5380
264	-0.0770	-0.4420	0.0040	2.4810	-0.4330	-0.3370
265	-0.1790	-0.3420	0.0040	2.4810	-0.4330	-0.3370
266	-0.0880	-0.4660	0.0000	2.3460	-0.4930	-0.1150
267	-0.0920	-0.4660	0.0000	2.3460	-0.4930	-0.1150
268	-0.1620	-0.4300	-0.0080	2.5320	-0.3400	-0.0730
269	0.0310	-0.4300	-0.0080	2.5320	-0.3400	-0.0730
270	0.0470	-0.3410	-0.0060	2.3280	0.0050	0.1330
271	-0.0400	-0.3410	-0.0060	2.3280	0.0050	0.1330
272	0.1570	0.0000	0.1260	1.9910	0.3870	0.3180
273	0.1570	0.0000	0.1260	1.9910	0.3870	0.3180
274	0.0590	-0.4340	-0.0470	2.1850	0.4100	-0.0010
275	-0.0590	-0.4340	-0.0470	2.1850	0.4100	-0.0010
276	-0.0330	-0.4690	-0.0300	1.9530	0.0310	0.2800
277	-0.0330	-0.4290	0.0080	2.3300	-0.4230	0.2850
278	0.0076	-0.3040	0.0410	1.9250	-0.0620	0.3630
279	0.0090	-0.3790	0.0220	2.0510	-0.1430	0.4820
280	0.0920	-0.3130	0.0500	2.0870	0.1380	0.3610
281	-0.1840	-0.3740	-0.0500	2.1280	-0.6060	0.5820
282	-0.0300	-0.3120	0.0620	1.7340	-0.3240	0.2650
283	-0.1460	-0.3570	-0.0060	1.9540	-0.5260	0.4140
284	-0.0950	-0.3850	0.0420	2.2650	-0.1400	0.4580
285	0.1580	-0.2900	0.0500	2.1380	0.0290	0.3170
286	0.0460	-0.3480	-0.0320	2.0890	-0.3340	0.6600
287	-0.0410	-0.3980	0.0090	1.7930	-0.3330	0.6700
288	0.0550	-0.3670	-0.0360	2.2250	-0.0420	0.3200
289	-0.0420	-0.3480	0.0430	2.3300	-0.3740	0.5040
290	-0.0640	-0.3670	0.0820	2.2000	0.2000	0.6050
291	-0.0700	-0.5230	-0.0180	2.5800	0.0410	0.3630
292	-0.0740	-0.4890	0.0510	2.0520	-0.6480	0.3910
293	-0.1350	-0.3510	0.0200	1.6710	-0.4560	0.3360
294	0.0020	-0.2170	0.1760	2.0270	-0.1980	-0.0040
295	-0.0890	-0.1760	0.0530	1.9860	-0.3610	0.1360
296	-0.2930	-0.3980	0.0320	1.5090	-1.1430	0.4700
297	-0.3160	-0.3440	0.0660	1.7120	-1.3840	0.2790
298	-0.3040	-0.3640	0.0580	1.9890	-0.8170	0.0800
299	-0.3280	-0.4540	0.1450	2.1240	-1.3970	0.1520
300	-0.3770	-0.4180	0.1580	1.9810	-1.5870	0.3230
301	-0.2860	-0.3400	0.1660	2.0350	-0.8440	0.1210
302	-0.2680	-0.4640	0.1410	2.5800	-0.6820	-0.1600
303	-0.3160	-0.7270	0.0170	3.3280	-1.4450	-0.1060
304	-0.4720	-0.8220	0.1300	3.7070	-1.9270	0.1020
305	-0.4180	-0.5600	0.1640	3.5510	-2.0090	-0.0790
306	-0.3010	-0.5250	0.0340	3.3460	-2.2110	-0.5090
307	-0.3420	-0.6780	0.0570	3.4900	-2.9270	-0.3040
308	-0.4720	-0.5390	0.0090	3.4600	-3.1900	-0.0710
309	-0.3220	-0.5570	-0.0350	3.4810	-3.4200	-0.3010
310	-0.2720	-0.6290	-0.0130	3.4720	-3.4010	-0.3910
311	-0.2780	-0.5310	-0.1650	3.3980	-3.8320	-0.3920
312	-0.0200	-0.4070	-0.1690	3.3500	-3.5660	-0.4230
313	0.1620	-0.5290	-0.1380	3.5500	-3.3600	-0.9040
314	0.0270	-0.6940	-0.1080	3.7640	-3.8870	-0.8470
315	-0.2390	-0.6630	-0.2340	3.9870	-4.0960	-0.5780
316	0.1910	-0.7150	-0.1510	4.0530	-3.8130	-0.8890
317	0.0160	-0.6610	-0.2130	3.6560	-4.1430	-1.0240
318	-0.1360	-0.5230	-0.1330	3.2600	-3.9690	-1.0090
319	-0.0150	-0.5940	-0.2050	3.9190	-3.7820	-1.0550
320	0.1370	-0.5430	-0.1760	4.0360	-3.4130	-1.2340
321	0.0380	-0.5600	-0.1910	3.9050	-3.3980	-1.0880
322	0.0780	-0.6100	-0.0930	3.4570	-3.0410	-1.2830
323	0.1340	-0.6070	-0.0220	3.8580	-2.3930	-1.7420
324	-0.0010	-0.6310	-0.1150	3.6990	-2.7660	-1.5300
325	0.1070	-0.5920	-0.0190	3.6700	-2.6090	-1.6540
326	0.1840	-0.6240	-0.1490	3.6020	-2.4230	-1.6980
327	0.1990	-0.5480	-0.1380	4.0900	-2.6410	-1.5070
328	0.2460	-0.5030	-0.0920	4.0930	-2.2620	-1.4110
329	0.3430	-0.4780	-0.0950	3.6470	-2.1660	-1.5120
330	0.2220	-0.5540	-0.1860	3.4850	-1.9180	-1.4540
331	0.1100	-0.4770	-0.0970	3.6530	-1.9260	-1.6480
332	0.1030	-0.5720	-0.1510	3.7630	-1.8600	-1.3450
333	0.2900	-0.4860	-0.1840	3.4870	-1.6310	-1.4750
334	0.4130	-0.3810	-0.2190	3.6740	-0.7150	-1.7600
335	0.4270	-0.5650	-0.2550	3.9230	-0.7910	-1.4110
336	0.5880	-0.7500	-0.1590	4.0170	-0.0080	-1.4200
337	0.4810	-0.6150	-0.1660	3.8560	-0.1210	-1.1690
338	0.4110	-0.5940	-0.1600	3.5680	0.5410	-1.1450
339	0.0770	-0.7860	0.5700	3.4540	0.5940	-1.0460
340	-0.7120	-0.8250	0.3410	3.6040	0.4350	-0.9920
341	-0.5710	-0.9500	0.5590	4.2290	0.1250	-0.9190
342	-0.1240	-0.7860	-0.0770	4.2260	0.1950	-1.0800
343	0.0930	-0.5030	0.0200	3.9230	0.2080	-0.8830
344	-0.1360	-0.3180	0.1510	3.5750	0.4200	-0.9440
345	-0.1420	-0.8140	0.1430	3.6220	0.5490	-0.5120
346	-0.2530	-0.8170	0.0700	3.5050	0.1700	-0.8390
347	-0.1040	-0.6590	-0.0080	3.8780	-0.1800	-0.6830
348	0.0190	-0.5970	0.0100	3.4860	-0.1140	-0.6690
349	0.1190	-0.3850	-0.0170	3.0510	-0.0330	-0.6770
350	-0.0740	-0.6160	-0.0500	3.0550	0.0870	-0.4920
351	-0.0740	-0.6160	-0.0500	3.0550	0.0870	-0.4920
352	-0.0480	-0.5680	-0.0040	2.6540	-0.4920	-0.5780
353	0.0320	-0.3640	-0.0390	2.4610	-0.3480	-0.5390
354	-0.0160	-0.2450	0.0730	2.2670	-0.0880	-0.4520
355	-0.2340	-0.5600	0.0220	2.4570	-0.2630	-0.1050
356	0.0320	-0.6050	0.0090	2.5520	0.0580	-0.4550
357	-0.1140	-0.3240	0.0800	2.2800	-0.4120	-0.4130
358	0.0480	-0.2380	0.0070	1.9400	-0.2230	-0.6600
359	0.0890	-0.3170	-0.0460	2.0520	0.1990	-0.9040
360	-0.1500	-0.5360	0.1150	2.3290	-0.0080	-0.7100
361	-0.0860	-0.3210	-0.0250	2.1590	-0.2180	-0.8000
362	0.1180	-0.2680	0.0330	2.1680	-0.2370	-0.7000
363	-0.1730	-0.3770	0.0030	2.5780	-0.7080	-0.5100
364	-0.1110	-0.4820	-0.0210	2.4130	-0.3100	-0.2250
365	-0.2530	-0.4920	0.2120	2.3220	-0.5450	0.0000
366	-0.1980	-0.3890	-0.2230	1.7020	-0.7650	-0.2900
367	-0.1940	-0.2100	-0.0380	1.4200	-0.8050	0.4160
368	-0.0700	-0.2950	-0.0330	1.2900	-0.5060	0.3970
369	0.0730	-0.4610	0.1820	0.8490	-0.5458	0.1600
370	0.0460	-0.3300	0.1280	1.0630	-0.5430	0.3730
371	0.2810	-0.3460	0.1130	2.1280	-0.0240	0.1030
372	0.0080	-0.4960	0.0400	2.0170	-0.0480	0.2620
373	-0.0200	-0.4100	-0.0630	2.1580	0.7940	0.0630
374	-0.1220	-0.4620	0.0760	2.2680	-0.0710	1.0960
375	0.1720	-0.5510	0.1470	2.5870	0.1012	0.5440
376	-0.0340	-0.5020	0.1700	2.7500	0.1012	0.5440
377	-0.1780	-0.5620	0.0830	2.6530	-0.8800	1.1920
378	-0.3220	-0.7980	0.0750	3.6590	-1.8440	1.6680
379	-0.5490	-0.6080	0.0310	3.4850	-2.3040	1.8220
380	-0.6390	-0.6330	-0.0933	-3.0130	1.4920	0.0160
381	-0.4450	-0.6790	-0.1630	3.7490	-3.0220	2.1070
382	-0.4790	-0.7100	-0.1680	3.9710	-2.8430	2.3400
383	-0.4320	-0.6110	-0.1930	4.0530	-2.5810	1.6090
384	-0.5070	-0.5120	0.0000	4.3970	-2.3450	1.8860
385	-0.3070	-0.5170	-0.0570	5.1070	-2.7250	2.2880
386	-0.2270	-0.3210	-0.1750	4.4370	-2.8150	2.8040
387	-0.1200	-0.5150	-0.1750	4.4370	-2.8150	2.8040
388	-0.3710	-0.6050	-0.0240	4.9300	-1.9490	3.3430
389	-0.3960	-0.6000	-0.1640	4.2860	-2.1040	3.2220
390	-0.4340	-0.6420	-0.0450	4.1560	-2.4860	3.8230
391	0.0480	-0.2850	0.0280	3.6800	-1.3170	3.0620
392	0.1020	-0.3010	-0.1910	3.5710	0.0600	2.7850
393	0.1690	-0.4020	-0.2340	3.5880	0.6090	3.1510
394	0.0450	-0.4020	-0.2340	3.5880	0.6090	3.1510
395	0.4350	-0.3060	-0.1650	2.4250	2.3340	2.1110
396	0.5980	-0.3910	-0.1500	2.9290	2.8010	2.3150
397	0.5940	-0.4850	-0.0650	3.0920	3.2300	2.9310
398	0.6380	-0.3570	-0.0410	550.0000	3.7090	2.8930
399	0.4930	-0.3170	-0.0290	550.0000	3.7090	2.8930
400	0.1100	-0.1360	-0.3390	4.2450	3.1000	3.6090
401	-0.4600	-0.5210	-0.3200	3.6310	1.4460	4.2560
402	-0.7230	-0.8700	0.0106	3.7330	0.6770	4.9570
403	-0.8240	-0.8600	-93.0000	3.9430	0.1300	5.2140
404	-0.7430	-0.2080	0.0560	3.8040	-0.4330	4.7600
405	-0.5150	-0.0740	0.2430	4.0110	-0.6900	4.7740
406	-0.5410	0.0570	0.2430	4.0110	-0.6900	4.7740
407	-0.8820	-0.4200	0.2430	4.0110	-0.6900	4.7740
408	-1.3240	-0.6220	0.0950	2.6940	-2.7290	5.7640
409	-1.2800	-0.6330	0.0220	2.5380	-4.6990	6.2810
410	-1.1950	-0.9610	-0.1780	1.9880	-6.3030	6.9480
411	-0.9210	-1.1380	-0.1850	1.5260	-5.8540	7.2930
412	-0.7330	-1.2610	-0.1850	1.5260	-5.8540	7.2930
413	-0.6560	-1.2610	-0.1810	1.6110	-5.1720	6.7930
414	-0.1930	-1.0680	-0.3210	2.4040	-4.7750	7.0700
415	-0.1030	-0.0860	-0.7600	1.4440	-3.4260	6.2260
416	0.0510	-0.9480	-0.3650	1.0450	-2.3210	5.5460
417	-0.2260	-0.8780	-0.3760	0.9900	-1.1020	5.4450
418	-0.2630	-0.6120	-0.4550	1.0690	-0.7480	5.3830
419	-0.9890	-0.6120	-0.4550	1.0690	-0.7480	5.3830
420	-0.9790	-0.0410	-0.2560	2.6700	-1.3370	5.1510
421	-0.8710	-0.2910	-0.2890	3.6460	-1.2550	5.6200
422	-0.8840	-0.0500	0.3850	4.6860	-2.6660	5.4380
423	-0.7250	-0.1630	0.1560	4.3120	-4.1070	6.0860
424	-0.9630	-0.1870	-0.1660	3.7610	-5.1640	6.6370
425	-0.1910	-1.2440	0.2550	3.7160	-6.0640	7.3180
426	-0.7680	-1.3680	0.0980	3.1610	-6.3360	6.7890
427	-1.2000	-1.6820	-0.2400	3.3560	-6.6900	6.5190
428	-1.4300	-1.4850	-0.0910	4.1190	-6.8790	6.2320
429	-0.9200	-1.7330	-0.1050	4.0850	-6.6410	6.3320
430	-1.1660	-1.4200	-0.1000	4.4120	-5.9860	6.2520
431	-0.6950	-0.9870	0.5610	4.7870	-5.1970	6.0140
432	-0.7040	-1.2070	0.2180	4.6530	-4.8840	6.1120
433	-0.3270	-0.7610	0.1080	4.6050	-5.3760	5.6650
434	-1.3900	-1.1240	-0.0060	4.6280	-7.4430	5.8450
435	-1.5210	-1.4200	-0.0470	4.9660	-8.7290	5.8740
436	-1.5680	-1.4120	-0.0110	5.0340	-8.6330	5.0650
437	-1.1200	-1.0870	-0.0520	5.4970	-7.9550	4.0390
438	-0.7070	-0.8370	-0.0420	5.2560	-6.7760	3.6130
439	-0.7240	-0.6540	0.0440	4.4270	-6.9770	3.7390
440	-1.2760	-0.8670	-0.0740	4.2980	-7.3240	3.9260
441	-1.4890	-1.0620	-0.0310	4.3970	-8.3010	4.0320
442	-1.3270	-0.7780	-0.0310	4.5770	-8.1370	3.4590
443	-1.0690	-0.7450	-0.0680	4.4560	-7.7770	2.7980
444	-1.1210	-0.7370	-0.1870	4.6160	-7.2910	2.4190
445	-0.7630	-0.9640	-0.0330	4.0870	-6.3300	2.2320
446	-0.7240	-0.6890	-0.0340	3.3920	-5.5340	1.6090
447	-0.4880	-0.7780	-0.0420	3.7620	-5.2380	1.8600
448	-0.4570	-0.8220	-0.0150	3.0620	-5.4790	1.9930
449	-0.6800	-0.6670	-0.0630	2.4690	-4.6800	1.5220
450	-0.7150	-0.7810	-0.1000	2.8340	-4.1850	1.5020
451	-0.7040	-0.7690	0.0190	2.8400	-4.1380	1.4180
452	-0.8070	-0.8870	0.0190	3.4940	-4.8870	1.8830
453	-0.9680	-0.6920	-0.1220	3.7840	-5.7050	1.7800
454	-0.7860	-0.5490	-0.1000	4.9200	-5.6380	1.6840
455	-0.6010	-0.4550	-0.2040	5.6030	-4.8680	1.0400
456	-0.6370	-0.2720	-0.1250	4.6660	-3.8640	1.0190
457	-0.8650	-0.4300	-0.0790	5.0130	-2.9420	0.8120
458	-0.8880	-0.4050	0.0090	4.8080	-3.0470	1.0040
459	-0.9840	-0.4810	-0.0140	4.9220	-3.8260	1.3560
460	-1.1780	-0.4070	0.0070	4.8170	-4.7190	1.8450
461	-0.9440	-0.6320	-0.0770	4.1290	-4.9980	1.8700
462	-0.8530	-0.7610	0.1040	4.3320	-4.6300	1.7430
463	-0.9900	-0.7250	0.0490	4.3790	-5.4820	1.6240
464	-1.2370	-0.8610	-0.0520	4.2640	-7.1960	2.1180
465	-1.2880	-0.8810	-0.2300	3.9780	-8.7240	2.6890
466	-1.3120	-0.7550	-0.2840	3.6330	-8.5170	2.7120
467	-1.2940	-1.0360	-0.2410	4.0230	-8.2040	2.8570
468	-1.2960	-0.8810	-0.1850	3.6830	-8.8080	2.1350
469	-1.4030	-0.8490	-0.5690	3.4700	-9.1310	1.8930
470	-1.4060	-1.3570	-0.3550	5.1140	-9.2830	2.4860
471	-1.4910	-1.2290	-0.4850	5.0730	-9.4980	2.5200
472	-1.5130	-1.0430	-0.5040	5.1140	-9.3490	1.8860
473	-1.6060	-0.6200	-0.5130	5.5220	-8.2310	1.2430
474	-1.2390	-0.6430	-0.5450	4.7610	-6.8360	1.0420
475	-1.3190	-0.5200	-0.4610	4.9590	-5.7730	0.5910
476	-1.1970	-0.5230	-0.4830	5.1490	-5.9370	0.6500
477	-1.3610	-0.4370	-0.3990	5.2530	-6.1910	0.5900
478	-1.2420	-0.4710	-0.3320	4.4280	-6.4730	0.6570
479	-1.3380	-0.4050	-0.1020	4.6640	-6.4440	1.3430
480	-1.3300	-0.5980	-0.1540	4.4380	-7.0300	1.8490
481	-1.4420	-0.6480	-0.1690	4.2820	-7.1530	2.3500
482	-1.2290	-0.7100	-0.1490	3.9210	-7.2610	3.0130
483	-1.3400	-0.4840	-0.1570	3.4170	-7.0820	2.5620
484	-1.5540	-0.6060	-0.1230	2.7570	-7.2620	2.8730
485	-1.4270	-0.7580	-0.1520	3.2260	-7.1190	3.0440
486	-1.1150	-0.7010	-0.1240	2.6700	-6.3060	2.6300
487	-0.6900	-0.5130	-0.2240	1.6690	-4.9680	2.0130
488	-0.3260	-0.4540	-0.1360	1.4400	-3.9390	1.3950
489	-0.2770	-0.3990	-0.0850	1.3520	-3.6480	0.9610
490	-0.2410	-0.3520	-0.1520	2.1170	-3.0010	2.0620
491	-0.1560	-0.4250	-0.0880	2.1490	-2.7330	2.9030
492	-0.6310	-0.6490	-0.1510	2.4150	-2.9520	3.6820
493	-0.9030	-0.7500	-0.1040	2.6290	-3.7770	4.4970
494	-1.1270	-0.4340	-0.1880	2.1840	-3.3190	4.3760
495	-1.1270	-0.4340	-0.1880	2.1840	-3.3190	4.3760
496	-0.7440	0.5820	-0.3420	0.1210	-2.7970	4.2990
497	-0.7440	0.5820	-0.3420	0.1210	-2.7970	4.2990
498	-1.0510	0.5420	-0.2290	-0.4170	-3.7670	4.4210
499	-1.0510	0.5420	-0.2290	-0.4170	-3.7670	4.4210
500	-0.6950	0.7430	-0.2070	-1.2670	-2.6710	4.6150
501	-0.6950	0.7430	-0.2070	-1.2670	-2.6710	4.6150
502	-0.9020	0.3970	-0.0360	-0.4330	-4.3610	4.6330
503	-1.1460	-0.0440	-0.0680	0.3390	-5.7540	5.0970
504	-1.4880	-0.2160	0.0200	0.1620	-7.3980	5.5330
505	-1.4630	-0.4890	0.0160	-0.1520	-8.2290	5.5300
506	-1.5880	-0.6960	0.0990	0.4160	-8.8240	5.6531
507	-1.8950	-0.8910	0.0660	0.1310	-10.8430	5.8200
508	-2.0690	-0.8930	-0.1220	-0.5650	-13.0050	5.8200
509	-2.3710	-0.8090	-0.1160	-1.7350	-14.6780	7.0830
510	-2.2540	-0.3800	-0.0890	-2.2050	-15.6780	7.0830
511	-2.2660	-0.1870	-0.4690	-1.9580	-15.0540	6.4080
512	-2.2000	-0.1820	-0.6410	-0.6490	-15.0540	6.4080
513	-2.4150	-0.0430	-0.6580	-0.6820	-14.4620	6.7050
514	-2.2780	-0.0900	-0.6610	0.2170	-114.4620	6.1270
515	-2.3270	-0.1650	-0.6340	0.3630	-13.3930	5.8060
516	-2.3250	-0.0930	-0.6060	0.4920	-13.3930	6.0010
517	-2.7710	-0.0850	-0.6200	0.3840	-14.5030	6.1930
518	-2.9330	-0.1610	-0.5900	0.0840	-14.5030	6.1930
519	-2.7810	0.1020	-0.4990	-0.7950	-15.2320	6.0210
520	-2.5280	0.2020	-0.3210	-0.7950	-15.2320	6.0210
521	-2.3620	0.4180	-0.2800	-0.9070	-14.8140	7.0130
522	-2.3820	0.2300	-0.4170	-0.9960	-15.1020	6.9280
523	-2.6240	-0.2990	-0.5500	-0.9960	-15.1020	6.9280
524	-2.8860	-0.6090	-0.7210	-0.3810	-17.0860	7.4560
525	-2.8250	-0.6580	-0.7210	-0.3810	-17.0860	7.4560
526	-2.8190	-0.5750	-0.3810	-0.1290	-18.1390	7.3040
527	-2.9120	-0.6010	-0.3810	-0.1290	-18.1390	7.3040
528	-3.0030	-0.8220	-0.3060	-1.6180	-17.5700	6.8680
529	-2.9670	-0.9680	-0.3060	-1.6180	-17.5700	6.8680
530	-2.9190	-0.8950	-0.3030	0.8450	-17.7750	7.0860
531	-2.6210	-0.6450	-0.3030	0.8450	-17.7750	7.0860
532	-2.4660	-0.2530	-0.2560	1.3730	-16.7310	6.7190
533	-2.5020	-0.2530	-0.2560	1.3730	-16.7310	6.7190
534	-2.5680	-0.2110	-0.3590	1.1050	-15.6810	6.5140
535	-2.9830	-0.2110	-0.3590	1.1050	-15.6810	6.5140
536	-3.3670	-0.3360	-0.4850	1.4750	-17.1830	6.3410
537	-3.3740	-0.3360	-0.4850	1.4750	-17.1830	6.3410
538	-3.0640	-0.4240	-0.6790	0.5690	-19.2890	6.3920
539	-2.8220	-0.4110	-0.6600	0.7210	-18.5970	5.1060
540	-2.8220	-0.4110	-0.6600	0.7210	-18.5970	5.1060
541	-2.3410	0.1210	-0.6360	-0.2230	-16.5200	3.6960
542	-2.3410	0.1210	-0.6360	-0.2230	-16.5200	3.6960
543	-1.9610	-0.1770	-0.4200	-0.5800	-14.0820	4.3040
544	-1.9610	-0.1770	-0.4200	-0.5800	-14.0820	4.3040
545	-2.1590	-0.0540	-0.2320	-1.8990	-12.1770	3.3300
546	-2.1580	-0.1330	-0.1410	-1.1460	-12.3110	3.5190
547	-2.6710	-0.3230	-0.1320	-0.5860	-13.1150	4.1430
548	-2.8960	-0.3170	-0.3110	-1.0480	-13.9880	4.4800
549	-2.8660	-0.1680	-0.2280	-1.5240	-14.9270	4.4990
550	-2.6920	0.1050	-0.1670	-1.8160	-15.3300	5.2050
551	-2.6830	0.0850	-0.0480	-1.8150	-15.6270	5.7020
552	-2.6850	0.2980	-0.4350	-2.3350	-15.9050	5.7910
553	-2.7850	0.4740	-0.3240	-2.4020	-15.5340	5.0410
554	-2.7270	0.8210	-0.5230	-3.3680	-14.4160	4.3450
555	-2.3310	0.6980	-0.5210	-3.8330	-12.8840	4.1440
556	-2.3490	0.4750	-0.5520	-4.2860	-11.9660	3.4690
557	-2.1090	0.1150	-0.5090	-2.9490	-11.6890	3.4160
558	-1.5200	0.3610	-0.3510	-2.0060	-11.3400	3.3910
559	-1.5200	0.3610	-0.3510	-2.0060	-11.3400	3.3910
560	-1.5870	0.6140	-0.3910	-3.8550	-11.9360	5.2600
561	-1.5870	0.6140	-0.3910	-3.8550	-11.9360	5.2600
562	-2.1010	0.2020	-0.1880	-3.3040	-11.8760	4.9140
563	-2.1010	0.2230	-0.0640	-2.5610	-11.7230	4.6620
564	-2.0610	0.1870	-0.2760	-1.8980	-11.1730	4.1480
565	-2.0460	0.0320	-0.0760	-1.5200	-10.6210	4.0990
566	-2.3770	-0.3510	-0.1210	-0.0050	-11.3920	3.9850
567	-2.7970	-0.7270	-0.2050	1.0840	-12.8970	4.0330
568	-2.6860	-0.7610	-0.3470	2.4630	-14.1480	4.5060
569	-2.5090	-0.5650	-0.4220	3.5060	-14.6810	4.6840
570	-2.2720	-0.5460	-0.4380	3.6170	-14.1990	4.4350
571	-2.1640	-0.5600	-0.4490	3.1930	-14.2720	5.0050
572	-2.3420	-0.8650	-0.4330	3.1550	-14.4220	5.1400
573	-2.4420	-0.8590	-0.4810	2.0500	-14.5050	5.0730
574	-2.1050	-0.4900	-0.2970	0.9990	-13.7590	4.7690
575	-1.9470	-0.4010	-0.3700	0.5610	-13.2870	4.5570
576	-2.2540	-0.4450	-0.2400	1.2370	-13.7920	4.3690
577	-2.7280	-0.6870	-0.2750	1.9380	-15.1710	4.7010
578	-3.0980	-0.8450	-0.4320	2.9160	-16.6800	4.9470
579	-3.3790	-1.1380	-0.6080	3.6200	-17.9270	5.0070
580	-3.3940	-1.4090	-0.5960	3.7860	-18.7680	5.5520
581	-3.4320	-1.5050	-0.5810	4.0480	-19.6600	5.3880
582	-3.6050	-1.3730	-0.5750	5.0520	-20.3730	5.5970
583	-3.3170	-1.2740	-0.5660	4.9050	-20.6100	5.6070
584	-3.0450	-1.3340	-0.7860	6.4410	-20.9930	4.8000
585	-2.9210	-1.3700	-0.6760	7.2890	-20.3160	4.4110
586	-2.8280	-1.4130	-0.5690	7.3310	-19.6200	4.8830
587	-2.4430	-1.5700	-0.4820	6.8800	-18.2510	4.9360
588	-2.4480	-1.5110	-0.6000	7.2150	-18.3150	4.4590
589	-2.7790	-1.7260	-0.7690	7.8720	-19.3270	4.8480
590	-3.1130	-2.0950	-1.0560	8.7980	-20.1670	4.7930
591	-3.4190	-2.2030	-1.1450	9.1090	-20.7650	4.9190
592	-3.3700	-2.2920	-1.1810	9.8700	-20.4680	4.5200
593	-3.3570	-2.0250	-1.1850	11.0390	-20.5480	3.8460
594	-3.2340	-1.7890	-1.4780	10.3290	-20.0610	3.1500
595	-3.1630	-1.6120	-1.3830	9.9700	-19.7180	2.7990
596	-3.1880	-1.8750	-1.1800	10.2220	-19.3920	2.4710
597	-3.2930	-2.0100	-1.2080	10.5930	-19.7820	2.7060
598	-3.2370	-1.9690	-1.1850	10.3550	-19.8130	2.5350
599	-3.1150	-1.9330	-1.2070	10.5160	-20.1350	2.1660
600	-3.0070	-1.9710	-0.9920	11.0700	-20.3610	2.0780
601	-3.1690	-2.0080	-1.2980	11.2330	-20.9410	2.4370
602	-2.9340	-1.8430	-1.4380	11.1070	-20.2540	2.0620
603	-2.9250	-1.7260	-1.2860	11.2020	-18.8480	1.6930
604	-2.5790	-1.7530	-1.1400	10.8510	-17.9630	1.5550
605	-2.9530	-1.8080	-1.2340	9.8500	-18.2950	1.5710
606	-3.1240	-1.8470	-1.2680	9.4870	-18.3280	1.2340
607	-3.1440	-1.9350	-1.1940	9.4590	-18.1370	1.0700
608	-2.9950	-2.0070	-1.1060	9.7790	-18.3450	0.7870
609	-3.1820	-1.8520	-1.1080	10.4940	-18.9750	0.4490
610	-3.3520	-1.9620	-1.3710	11.3830	-19.6650	0.5860
611	-3.4120	-1.7810	-1.2670	11.4380	-19.6770	0.5630
612	-3.2070	-1.5630	-1.3350	11.1370	-18.7790	0.3110
613	-3.0490	-1.1910	-1.2690	10.3220	-17.7640	-0.1430
614	-2.8150	-0.8610	-1.1650	9.1520	-17.2570	-0.3870
615	-2.8560	-1.0950	-1.1280	9.4020	-17.8090	0.0770
616	-3.2120	-1.0290	-1.2800	8.8150	-19.1060	0.3190
617	-3.2290	-1.1110	-1.1170	8.8420	-19.6950	0.2760
618	-3.0100	-1.1000	-1.0720	8.9890	-18.9140	-0.2220
619	-2.8330	-1.0220	-0.9450	8.1750	-17.7900	-0.4890
620	-2.9390	-1.1180	-0.8380	7.8410	-17.2580	-0.4790
621	-2.9290	-1.2080	-0.7850	7.6890	-17.3330	-0.2490
622	-3.1030	-1.1570	-0.7150	6.9600	-16.4540	-0.3150
623	-2.7420	-1.1950	-0.5210	7.2790	-15.2490	-0.2130
624	-2.6750	-1.2010	-0.4150	6.9750	-14.8020	-0.3860
625	-2.8590	-1.1940	-0.3060	6.0230	-15.1530	0.1170
626	-3.1250	-1.3710	-0.2650	6.4450	-16.5180	0.8180
627	-3.2620	-1.3150	-0.3030	6.2600	-16.9370	0.9390
628	-3.3110	-1.2380	-0.1680	6.6270	-17.1140	0.9090
629	-2.9990	-1.0680	-0.0930	7.2880	-16.4370	0.8200
630	-2.7640	-1.2000	-0.1110	7.6170	-16.0320	0.2210
631	-2.6910	-1.2660	0.0790	7.7940	-16.2200	0.4440
632	-2.9440	-1.4760	0.0960	7.4730	-16.3490	0.5290
633	-3.0300	-1.4290	0.1760	7.1190	-16.3700	0.6560
634	-3.2420	-1.5050	0.2420	7.2560	-17.1680	0.9180
635	-3.1940	-1.4280	-0.0570	6.8450	-17.6830	1.1370
636	-2.9920	-1.4230	0.1800	7.1550	-16.5950	0.9970
637	-2.7670	-1.4370	-0.0990	7.2210	-15.5840	0.9820
638	-2.7350	-1.3980	-0.2130	7.0550	-15.0420	0.7900
639	-2.7180	-1.6830	-0.0500	7.5250	-14.7720	0.9070
640	-2.7500	-1.5630	-0.0260	7.1950	-14.5910	1.2690
641	-2.7410	-1.7200	-0.1620	7.4100	-15.1530	1.3090
642	-2.8710	-1.6440	-0.2030	8.3590	-15.9040	1.2080
643	-2.8710	-1.6440	-0.2030	8.3590	-15.9040	1.2080
644	-2.8730	-1.9610	-0.2440	9.3340	-16.9510	0.8970
645	-2.8050	-1.9680	-0.6730	10.1670	-16.7440	0.3780
646	-2.6820	-2.0340	-0.7170	10.5790	-15.9290	0.2470
647	-2.3350	-1.7760	-0.5570	10.0630	-14.4440	-0.0150
648	-2.2360	-1.6170	-0.5630	10.2920	-14.3530	0.1780
649	-2.1030	-1.5370	-0.6580	9.4400	-14.8670	0.7480
650	-2.4830	-1.5570	-0.7880	9.7450	-15.9400	0.7480
651	-2.4720	-1.5760	-0.6440	10.3110	-15.8380	0.4700
652	-2.3300	-1.5710	-0.6750	10.2200	-14.6380	0.4700
653	-2.1230	-1.2720	-0.6970	9.4260	-13.9740	-0.3180
654	-2.0690	-1.3400	-0.6560	8.7640	-13.5760	0.0338
655	-2.2430	-1.1900	-0.5420	8.2940	-14.0940	0.0710
656	-2.5660	-1.1370	-0.6000	7.4040	-15.2390	0.3740
657	-2.5770	-1.1370	-0.5320	6.7920	-14.7920	0.3740
658	-2.5440	-1.1380	-0.4270	6.7570	-14.5020	1.0610
659	-2.5660	-1.2690	-0.4670	7.1070	-15.1080	0.9280
660	-2.3890	-1.5450	-0.4430	8.2930	-15.1970	0.9070
661	-2.7600	-1.4830	-0.6670	9.0610	-16.5730	1.1160
662	-2.7220	-1.4760	-0.6600	9.1030	-16.8190	1.3810
663	-2.4600	-1.2520	-0.6240	7.8980	-16.8190	1.8330
664	-2.3000	-1.3310	-0.5390	7.4860	-15.3170	1.2700
665	-2.2570	-1.2930	-0.5070	7.0030	-13.9910	1.1200
666	-2.2500	-1.4030	-0.3950	7.1730	-13.9910	1.1200
667	-2.5080	-1.3600	-0.5950	7.1730	-13.9910	1.1200
668	-2.6100	-1.3820	-0.6530	7.3640	-14.8550	1.6500
669	-2.6200	-1.3010	-0.7150	7.3070	-15.4430	1.9450
670	-2.4180	-1.4270	-0.5540	7.1220	-15.6170	1.7290
671	-2.3540	-1.2780	-0.6010	7.1220	-15.6170	1.7290
672	-2.1170	-1.5600	-0.5280	7.5880	-15.2660	1.2420
673	-1.8210	-1.6360	-0.5180	7.5910	-14.1240	0.9480
674	-1.7920	-1.5000	-0.7180	8.4900	-13.4210	1.0790
675	-1.8340	-1.4360	-0.7800	8.1240	-12.7110	0.8280
676	-1.6580	-1.5440	-0.6710	8.5240	-12.0210	0.7280
677	-1.6360	-1.3600	-0.4830	8.5590	-10.5260	1.0740
678	-1.5950	-1.3880	-0.4020	7.5700	-9.6120	0.5730
679	-1.4910	-1.4960	-0.4020	7.5700	-9.6120	0.5730
680	-1.9580	-1.5860	-0.5600	7.9830	-9.2400	0.3190
681	-2.1710	-1.8870	-0.4170	7.9120	-10.0910	0.5050
682	-2.1710	-1.8870	-0.4170	7.9120	-10.0910	0.5050
683	-2.1810	-1.8600	-0.4750	9.2590	-11.4350	1.1090
684	-2.1810	-1.8600	-0.4750	9.2590	-11.4350	1.1090
685	-2.0030	-1.3900	-0.3460	9.4550	-10.1530	0.8200
686	-1.6880	-1.4740	-0.2740	9.3600	-9.4660	0.5720
687	-1.9130	-1.4740	-0.2740	9.3600	-9.4660	0.5720
688	-1.7030	-1.6720	-0.1260	9.2060	-10.6150	1.1770
689	-1.6090	-1.9570	-0.1660	9.6120	-11.2760	1.5460
690	-1.6980	-1.8550	-0.1630	8.9500	-11.3620	1.2420
691	-1.5300	-2.0960	-0.0780	10.4770	-11.1410	1.3330
692	-1.5220	-2.3430	-0.2110	11.7410	-10.9370	1.1700
693	-1.1800	-2.5490	-0.2530	12.2580	-9.9250	1.3820
694	-1.3200	-2.5210	-0.1790	13.1910	-9.1710	1.3350
695	-1.3340	-2.4180	-0.2130	12.5560	-8.2700	1.4960
696	-1.1790	-2.3930	-0.2390	13.3340	-7.5430	1.4460
697	-1.3030	-2.2820	-0.2500	14.0820	-7.9640	1.8380
698	-1.7210	-2.1880	-0.2100	14.2930	-9.3700	2.0660
699	-2.0990	-2.3030	-0.4030	14.5540	-10.6930	1.9140
700	-2.2780	-2.4110	-0.3300	15.2830	-11.0870	1.6260
701	-2.5260	-2.5820	-0.2430	14.8980	-11.6500	2.2220
702	-2.4080	-2.6170	-0.1550	14.0580	-11.9490	2.4060
703	-2.1970	-2.3940	-0.1330	13.3960	-11.5770	2.7070
704	-1.9960	-1.9020	-0.1870	11.9660	-10.1240	2.2940
705	-1.5140	-1.7530	-0.1960	11.4780	-8.9180	1.9020
706	-1.3720	-1.8770	-0.0650	10.8610	-8.5180	1.5730
707	-1.3130	-2.2680	-0.0730	11.9710	-8.7580	2.0090
708	-1.6660	-2.4120	-0.2900	12.4450	-10.2730	1.7960
709	-1.8000	-2.4180	-0.3940	12.6050	-11.7240	2.0810
710	-1.7880	-2.4540	-0.3240	12.4190	-12.0250	1.9030
711	-1.7830	-2.5200	-0.2700	13.0460	-10.9060	1.6450
712	-1.8380	-2.3010	-0.6250	12.6470	-10.4180	1.2660
713	-1.9170	-2.3610	-0.5640	13.1460	-9.9950	1.0590
714	-2.2700	-2.1830	-0.4510	14.1350	-10.0630	1.0630
715	-2.3910	-1.8210	-0.3490	13.7370	-10.1700	0.6970
716	-2.3680	-1.7330	-0.3870	13.7420	-10.7650	0.5590
717	-2.2250	-1.5080	-0.2480	13.7470	-11.0210	0.2050
718	-2.3860	-1.5330	-0.2360	13.4470	-12.1970	-0.1580
719	-2.3160	-1.8770	-0.3830	14.4870	-13.0170	-0.7110
720	-2.3550	-2.0870	-0.6020	14.8600	-13.2020	-0.9140
721	-2.2840	-2.2190	-0.5460	14.2700	-13.2940	-1.0880
722	-2.1730	-2.2920	-0.4460	12.8370	-13.0180	-0.9180
723	-2.0500	-2.3510	-0.3690	12.1330	-12.0630	-1.3460
724	-1.8270	-2.2180	-0.3400	12.2220	-11.0430	-1.4010
725	-1.5540	-2.1570	-0.2920	12.2990	-10.0540	-1.5920
726	-1.5890	-2.1170	-0.2520	11.8250	-10.3320	-1.3750
727	-1.7700	-2.3840	-0.4030	11.5350	-12.1120	-1.0410
728	-1.8430	-2.5810	-0.4810	12.6860	-13.1670	-0.6950
729	-1.9330	-2.5660	-0.4640	12.7480	-13.3690	-0.4230
730	-1.8720	-2.3280	-0.8650	13.1130	-12.9440	-1.1930
731	-1.6730	-2.2720	-0.7950	13.5740	-11.7250	-1.5190
732	-1.6560	-2.2050	-0.5260	13.4070	-11.1420	-1.4920
733	-1.5720	-2.2440	-0.7100	13.7900	-11.6180	-1.0530
734	-1.7130	-2.0990	-0.6180	14.5490	-11.9220	-0.8440
735	-1.8860	-2.0400	-0.7240	14.3360	-12.2460	-0.2970
736	-2.2620	-1.8390	-0.6660	13.6440	-11.9990	-0.0970
737	-2.3390	-1.7760	-0.6110	12.6190	-11.7010	0.2700
738	-2.5720	-1.5880	-0.5810	11.1090	-12.2460	0.5680
739	-2.4710	-1.6340	-0.6380	11.1210	-12.8080	0.5050
740	-2.4820	-1.5250	-0.6840	10.7560	-13.2320	0.1480
741	-2.1870	-1.4890	-0.5960	11.7490	-13.4160	-0.2510
742	-1.9310	-1.3040	-0.6780	10.5460	-12.7880	-0.5630
743	-1.6460	-1.4900	-0.6520	11.1080	-11.7770	-0.0140
744	-1.7180	-1.7220	-0.6310	10.0140	-11.7230	-0.0300
745	-1.7200	-1.8220	-0.6610	10.6800	-11.6020	0.5210
746	-1.8490	-1.9160	-0.7870	11.2530	-12.5630	0.4700
747	-1.9790	-1.8980	-0.8930	11.4260	-13.2540	0.1320
748	-2.2430	-2.1470	-0.7420	11.7810	-13.7890	0.2920
749	-2.3230	-2.1910	-0.7450	11.5050	-13.9300	0.1770
750	-2.1950	-2.3200	-0.6240	11.8330	-13.1760	-0.0860
751	-1.9990	-2.2520	-0.6600	11.5610	-12.1800	-0.1780
752	-1.7870	-1.9650	-0.5970	12.4470	-11.7820	-0.4070
753	-1.7390	-2.0800	-0.7710	12.5770	-11.4700	-0.0850
754	-1.8300	-1.7810	-0.8900	11.9790	-11.8330	-0.3040
755	-2.1100	-1.5870	-0.8660	11.7510	-12.9560	-0.0060
756	-1.9930	-1.4930	-1.1080	11.2680	-13.4020	-0.2610
757	-1.9310	-1.1910	-1.0380	11.9260	-13.3770	0.0280
758	-1.9370	-1.0960	-1.1860	11.3450	-12.4610	0.0190
759	-1.9840	-1.2120	-0.9670	11.0880	-11.2270	0.1090
760	-1.6500	-1.4390	-0.9670	10.7190	-10.4170	0.3360
761	-1.6570	-1.6760	-0.7660	11.4060	-9.8390	0.4100
762	-1.7240	-1.9830	-0.7940	11.6080	-10.0260	1.1450
763	-1.8670	-2.2090	-0.7990	12.2510	-10.6920	1.4950
764	-2.1080	-2.2540	-0.8730	12.6810	-11.8340	1.8180
765	-2.1050	-2.1280	-0.9960	12.2180	-11.7690	1.7760
766	-1.9640	-1.7990	-0.8320	11.2130	-11.5560	1.7460
767	-1.7230	-1.5580	-0.7160	10.8990	-10.4910	2.2740
768	-1.5320	-1.4820	-0.5880	10.8680	-10.4760	2.5620
769	-1.3950	-1.5360	-0.5460	10.5360	-10.9450	2.7080
770	-1.6270	-1.5150	-0.4630	10.8660	-11.5480	2.5550
771	-1.7260	-1.4070	-0.7360	11.0460	-12.1540	2.4600
772	-1.6530	-1.1730	-0.5930	10.3420	-11.6270	2.5570
773	-1.5010	-1.2710	-0.5270	10.4890	-10.7490	2.6070
774	-1.4670	-1.4080	-0.6540	10.4290	-9.6560	2.0010
775	-1.4510	-1.6680	-0.6080	11.5310	-8.7910	2.0780
776	-1.3200	-1.8840	-0.6230	12.6320	-7.9860	1.9890
777	-1.2890	-2.1080	-0.4970	13.0410	-7.9960	2.5100
778	-1.2940	-2.0730	-0.5310	13.2480	-7.6120	2.3630
779	-1.5220	-2.0210	-0.7290	12.8430	-7.7720	2.4450
780	-1.7530	-2.1860	-0.6810	13.0760	-8.5900	2.3650
781	-1.7010	-2.1750	-0.6600	13.7300	-9.0770	2.1060
782	-1.5800	-1.8940	-0.7600	13.6720	-9.2960	2.0590
783	-1.3940	-1.7750	-0.5950	14.0510	-8.3230	1.9990
784	-1.0320	-1.6080	-0.4260	13.5950	-6.8850	1.5670
785	-0.7370	-1.5030	-0.5460	12.9290	-5.3500	1.6040
786	-0.2230	-1.4850	-0.4130	12.7260	-3.4270	1.9650
787	-0.2230	-1.4850	-0.4130	12.7260	-3.4270	1.9650
788	0.1150	-1.1670	-0.2000	10.0780	-0.3590	2.2490
789	0.1150	-1.1670	-0.2000	10.0780	-0.3590	2.2490
790	-0.0950	-1.3080	-0.0700	8.5270	0.1660	2.8090
791	-0.0950	-1.3080	-0.0700	8.5270	0.1660	2.8090
792	-0.3350	-1.6360	0.0690	8.1430	0.2090	2.9360
793	-0.3350	-1.6360	0.0690	8.1430	0.2090	2.9360
794	-0.1450	-1.6000	0.4700	6.2700	0.6440	2.2750
795	-0.1450	-1.6000	0.4700	6.2700	0.6440	2.2750
796	-0.0850	-1.1630	0.7190	5.5440	0.4470	2.4360
797	0.0830	-0.9200	0.6890	6.1170	0.7190	2.5860
798	0.3570	-0.5900	0.4740	5.3220	1.3630	2.6220
799	0.2030	-0.2400	0.5280	3.9080	1.7470	2.2420
800	0.1960	-0.0610	0.4320	2.8150	1.9240	2.2440
801	0.2170	0.0920	0.4940	2.1240	2.2690	2.8210
802	0.5060	0.1460	0.3150	1.1830	2.6250	3.8210
803	0.3170	-0.0030	0.3220	0.9650	2.0210	3.5010
804	0.4980	-0.4520	0.3430	1.6440	1.6060	3.5010
805	0.3460	-1.1040	0.5990	2.8090	0.7220	4.7220
806	0.1370	-1.8150	0.4570	4.8570	-0.2200	4.7220
807	0.0300	-2.1980	0.3330	6.2590	-1.2690	7.0900
808	-0.0760	-2.2380	0.0380	7.5050	-0.2690	7.0900
809	-0.1660	-2.3590	-0.0180	8.7100	-3.3900	8.2420
810	-0.4210	-2.4160	-0.2230	10.2000	-3.3900	8.2420
811	-0.6110	-2.2260	-0.5560	9.0209	-4.3030	9.7930
812	-0.9070	-1.9150	-0.5440	9.0420	-5.7070	9.9900
813	-0.7880	-2.0150	-0.7220	1.2490	-5.7290	9.8220
814	-1.0710	-2.0420	-0.8320	10.3880	-6.1210	9.8180
