accelx	accely	accelz
-0.4391	0.5581	9.6550
-0.4403	0.5593	9.6520
-0.4409	0.5587	9.6538
-0.4397	0.5587	9.6538
-0.4379	0.5569	9.6532
-0.4367	0.5551	9.6508
-0.4385	0.5569	9.6526
-0.4385	0.5581	9.6526
-0.4379	0.5593	9.6484
-0.4361	0.5593	9.6502
-0.4367	0.5617	9.6496
-0.4373	0.5617	9.6496
-0.4397	0.5623	9.6502
-0.4373	0.5599	9.6496
-0.4385	0.5581	9.6502
-0.4355	0.5587	9.6502
-0.4337	0.5623	9.6490
-0.4355	0.5611	9.6478
-0.4349	0.5617	9.6490
-0.4355	0.5629	9.6496
-0.4379	0.5617	9.6490
-0.4391	0.5629	9.6508
-0.4415	0.5605	9.6520
-0.4397	0.5605	9.6532
-0.4415	0.5599	9.6574
-0.4403	0.5599	9.6556
-0.4397	0.5611	9.6550
-0.4403	0.5599	9.6574
-0.4355	0.5623	9.6538
-0.4355	0.5581	9.6562
-0.4343	0.5563	9.6562
-0.4325	0.5563	9.6550
-0.4319	0.5569	9.6562
-0.4349	0.5587	9.6568
-0.4349	0.5575	9.6550
-0.4361	0.5593	9.6538
-0.4319	0.5605	9.6544
-0.4331	0.5611	9.6538
-0.4367	0.5635	9.6544
-0.4373	0.5623	9.6544
-0.4367	0.5623	9.6550
-0.4349	0.5623	9.6574
-0.4343	0.5617	9.6568
-0.4349	0.5611	9.6580
-0.4379	0.5617	9.6550
-0.4373	0.5605	9.6532
-0.4355	0.5599	9.6544
-0.4373	0.5593	9.6580
-0.4355	0.5611	9.6586
-0.4355	0.5611	9.6580
-0.4403	0.5617	9.6580
-0.4343	0.5617	9.6598
-0.4355	0.5623	9.6616
-0.4391	0.5611	9.6592
-0.4361	0.5635	9.6580
-0.4373	0.5629	9.6586
-0.4349	0.5623	9.6562
-0.4343	0.5605	9.6532
-0.4391	0.5617	9.6544
-0.4391	0.5605	9.6538
-0.4403	0.5629	9.6538
-0.4385	0.5611	9.6556
-0.4373	0.5623	9.6538
-0.4337	0.5617	9.6526
-0.4361	0.5569	9.6508
-0.4367	0.5593	9.6466
-0.4379	0.5587	9.6484
-0.4385	0.5569	9.6526
-0.4367	0.5581	9.6514
-0.4367	0.5575	9.6496
-0.4361	0.5557	9.6472
-0.4361	0.5551	9.6466
-0.4355	0.5563	9.6502
-0.4361	0.5551	9.6496
-0.4373	0.5545	9.6520
-0.4373	0.5563	9.6490
-0.4385	0.5551	9.6538
-0.4355	0.5569	9.6556
-0.4367	0.5581	9.6514
-0.4355	0.5587	9.6526
-0.4343	0.5569	9.6514
-0.4373	0.5563	9.6502
-0.4355	0.5575	9.6484
-0.4349	0.5599	9.6508
-0.4349	0.5599	9.6562
-0.4349	0.5593	9.6532
-0.4355	0.5605	9.6526
-0.4373	0.5617	9.6544
-0.4361	0.5587	9.6556
-0.4355	0.5587	9.6562
-0.4337	0.5599	9.6550
-0.4349	0.5611	9.6538
-0.4367	0.5611	9.6550
-0.4349	0.5599	9.6550
-0.4355	0.5605	9.6526
-0.4355	0.5611	9.6526
-0.4385	0.5581	9.6496
-0.4343	0.5563	9.6508
-0.4337	0.5569	9.6514
-0.4331	0.5581	9.6514
-0.4325	0.5575	9.6526
-0.4361	0.5575	9.6544
-0.4355	0.5593	9.6568
-0.4361	0.5587	9.6604
-0.4331	0.5593	9.6586
-0.4373	0.5593	9.6574
-0.4361	0.5581	9.6562
-0.4373	0.5593	9.6544
-0.4379	0.5587	9.6496
-0.4367	0.5593	9.6496
-0.4373	0.5599	9.6496
-0.4391	0.5605	9.6496
-0.4403	0.5605	9.6514
-0.4415	0.5623	9.6502
-0.4403	0.5605	9.6502
-0.4385	0.5635	9.6544
-0.4373	0.5647	9.6526
-0.4349	0.5647	9.6514
-0.4373	0.5629	9.6490
-0.4361	0.5617	9.6484
-0.4379	0.5581	9.6520
-0.4373	0.5587	9.6502
-0.4343	0.5593	9.6514
-0.4361	0.5629	9.6484
-0.4391	0.5623	9.6514
-0.4397	0.5623	9.6526
-0.4373	0.5605	9.6574
-0.4343	0.5605	9.6562
-0.4331	0.5605	9.6532
-0.4343	0.5617	9.6520
-0.4343	0.5623	9.6520
-0.4319	0.5611	9.6490
-0.4325	0.5593	9.6538
-0.4373	0.5587	9.6514
-0.4367	0.5611	9.6514
-0.4373	0.5611	9.6508
-0.4409	0.5605	9.6550
-0.4403	0.5623	9.6550
-0.4373	0.5617	9.6550
-0.4391	0.5605	9.6562
-0.4397	0.5617	9.6592
-0.4385	0.5593	9.6592
-0.4379	0.5611	9.6550
-0.4349	0.5611	9.6562
-0.4391	0.5599	9.6586
-0.4385	0.5599	9.6568
-0.4385	0.5617	9.6520
-0.4373	0.5599	9.6520
-0.4367	0.5629	9.6502
-0.4391	0.5611	9.6490
-0.4385	0.5599	9.4947
-0.4385	0.5611	9.6478
-0.4367	0.5605	9.6508
-0.4367	0.5611	9.6490
-0.4391	0.5605	9.6484
-0.4409	0.5623	9.6502
-0.4379	0.5611	9.6550
-0.4385	0.5605	9.6490
-0.4385	0.5629	9.6502
-0.4379	0.5617	9.6472
-0.4337	0.5605	9.6508
-0.4367	0.5605	9.6532
-0.4355	0.5611	9.6496
-0.4367	0.5599	9.6502
-0.4379	0.5587	9.6484
-0.4397	0.5599	9.6508
-0.4391	0.5587	9.6532
-0.4385	0.5587	9.6538
-0.4379	0.5575	9.6568
-0.4403	0.5575	9.6562
-0.4379	0.5587	9.6574
-0.4355	0.5587	9.6574
-0.4361	0.5581	9.6574
-0.4361	0.5593	9.6604
-0.4319	0.5605	9.6592
-0.4349	0.5617	9.6598
-0.4367	0.5611	9.6592
-0.4349	0.5611	9.6574
-0.4361	0.5599	9.6592
-0.4361	0.5575	9.6580
-0.4367	0.5575	9.6538
-0.4373	0.5605	9.6562
-0.4355	0.5605	9.6574
-0.4343	0.5599	9.6568
-0.4337	0.5611	9.6568
-0.4355	0.5611	9.6580
-0.4379	0.5623	9.6556
-0.4355	0.5605	9.6592
-0.4343	0.5623	9.6586
-0.4355	0.5611	9.6598
-0.4391	0.5605	9.6598
-0.4361	0.5617	9.6604
-0.4373	0.5599	9.6580
-0.4361	0.5617	9.6580
-0.4379	0.5611	9.6574
-0.4379	0.5617	9.6556
-0.4397	0.5605	9.6580
-0.4361	0.5593	9.6574
-0.4349	0.5599	9.6568
-0.4361	0.5587	9.6562
-0.4373	0.5569	9.6586
-0.4379	0.5569	9.6574
-0.4343	0.5557	9.6544
-0.4325	0.5551	9.6520
-0.4349	0.5557	9.6514
-0.4373	0.5569	9.6520
-0.4379	0.5563	9.6538
-0.4355	0.5581	9.6532
-0.4343	0.5575	9.6514
-0.4355	0.5575	9.6502
-0.4355	0.5593	9.6508
-0.4361	0.5593	9.6496
-0.4385	0.5575	9.6496
-0.4361	0.5575	9.6550
-0.4391	0.5587	9.6544
-0.4367	0.5587	9.6556
-0.4373	0.5575	9.6562
-0.4361	0.5599	9.6544
-0.4367	0.5605	9.6550
-0.4367	0.5599	9.6514
-0.4373	0.5605	9.6508
-0.4373	0.5593	9.6496
-0.4391	0.5587	9.6496
-0.4379	0.5587	9.6514
-0.4385	0.5605	9.6550
-0.4361	0.5605	9.6568
-0.4391	0.5629	9.6514
-0.4379	0.5599	9.6508
-0.4367	0.5587	9.6490
-0.4367	0.5575	9.6496
-0.4349	0.5545	9.6514
-0.4349	0.5563	9.6484
-0.4325	0.5593	9.6466
-0.4343	0.5617	9.6472
-0.4343	0.5623	9.6484
-0.4379	0.5623	9.6502
-0.4379	0.5629	9.6532
-0.4367	0.5635	9.6550
-0.4361	0.5641	9.6556
-0.4343	0.5635	9.6538
-0.4355	0.5617	9.6556
-0.4385	0.5611	9.6592
-0.4397	0.5611	9.6568
-0.4409	0.5593	9.6556
-0.4373	0.5605	9.6538
-0.4385	0.5623	9.6490
-0.4343	0.5611	9.6508
-0.4367	0.5587	9.6520
-0.4343	0.5575	9.6508
-0.4355	0.5575	9.6538
-0.4379	0.5569	9.6544
-0.4421	0.5551	9.6502
-0.4415	0.5551	9.6508
-0.4379	0.5539	9.6478
-0.4367	0.5575	9.6466
-0.4373	0.5575	9.6478
-0.4373	0.5593	9.6514
-0.4355	0.5599	9.6502
-0.4337	0.5605	9.6508
-0.4337	0.5593	9.6544
-0.4319	0.5605	9.6550
-0.4313	0.5575	9.6556
-0.4343	0.5575	9.6556
-0.4337	0.5575	9.6544
-0.4349	0.5581	9.6538
-0.4349	0.5599	9.6514
-0.4343	0.5599	9.6520
-0.4313	0.5593	9.6550
-0.4319	0.5605	9.6550
-0.4373	0.5611	9.6520
-0.4367	0.5599	9.6556
-0.4349	0.5599	9.6526
-0.4313	0.5593	9.6562
-0.4325	0.5587	9.6592
-0.4319	0.5599	9.6556
-0.4355	0.5605	9.6568
-0.4349	0.5587	9.6526
-0.4343	0.5581	9.6550
-0.4349	0.5587	9.6532
-0.4331	0.5587	9.6526
-0.4331	0.5599	9.6544
-0.4355	0.5611	9.6544
-0.4343	0.5587	9.6550
-0.4361	0.5605	9.6574
-0.4361	0.5623	9.6562
-0.4403	0.5599	9.6520
-0.4391	0.5611	9.6520
-0.4403	0.5647	9.6538
-0.4361	0.5635	9.6544
-0.4385	0.5623	9.6538
-0.4391	0.5623	9.6538
-0.4379	0.5617	9.6538
-0.4385	0.5611	9.6526
-0.4391	0.5593	9.6520
-0.4403	0.5581	9.6520
-0.4391	0.5587	9.6496
-0.4391	0.5599	9.6520
-0.4397	0.5581	9.6502
-0.4391	0.5587	9.6502
-0.4391	0.5599	9.6508
-0.4379	0.5575	9.6514
-0.4409	0.5581	9.6514
-0.4415	0.5575	9.6490
-0.4409	0.5575	9.6526
-0.4403	0.5575	9.6532
-0.4379	0.5581	9.6532
-0.4403	0.5617	9.6514
-0.4427	0.5623	9.6502
-0.4409	0.5635	9.6478
-0.4397	0.5605	9.4971
-0.4421	0.5605	9.6508
-0.4415	0.5605	9.6526
-0.4403	0.5611	9.6508
-0.4403	0.5623	9.6544
-0.4403	0.5611	9.6574
-0.4385	0.5605	9.6574
-0.4379	0.5623	9.6556
-0.4397	0.5617	9.6568
-0.4385	0.5623	9.6568
-0.4385	0.5629	9.6580
-0.4385	0.5617	9.6580
-0.4379	0.5605	9.6622
-0.4355	0.5611	9.6640
-0.4313	0.5635	9.6610
-0.4331	0.5623	9.6646
-0.4331	0.5587	9.6640
-0.4313	0.5569	9.6610
-0.4325	0.5563	9.6592
-0.4337	0.5581	9.6586
-0.4379	0.5599	9.6598
-0.4349	0.5593	9.6574
-0.4349	0.5599	9.6532
-0.4337	0.5605	9.6544
-0.4391	0.5605	9.6544
-0.4367	0.5605	9.6532
-0.4361	0.5605	9.6544
-0.4379	0.5599	9.6544
-0.4379	0.5611	9.6532
-0.4337	0.5617	9.6532
-0.4343	0.5635	9.6586
-0.4325	0.5623	9.6574
-0.4301	0.5605	9.6526
-0.4295	0.5611	9.6520
-0.4301	0.5599	9.6550
-0.4307	0.5593	9.6532
-0.4301	0.5581	9.6538
-0.4319	0.5605	9.6550
-0.4331	0.5593	9.6508
-0.4319	0.5605	9.6484
-0.4343	0.5593	9.6502
-0.4355	0.5587	9.6526
-0.4385	0.5593	9.6532
-0.4373	0.5629	9.6502
-0.4385	0.5611	9.6514
-0.4379	0.5599	9.6514
-0.4349	0.5599	9.6532
-0.4361	0.5611	9.6502
-0.4373	0.5617	9.6478
-0.4349	0.5635	9.6466
-0.4367	0.5659	9.6424
-0.4367	0.5641	9.6472
-0.4367	0.5653	9.6496
-0.4373	0.5629	9.6514
-0.4373	0.5623	9.6526
-0.4379	0.5623	9.6532
-0.4391	0.5605	9.6550
-0.4403	0.5605	9.6550
-0.4397	0.5623	9.6538
-0.4391	0.5611	9.6550
-0.4379	0.5587	9.6562
-0.4367	0.5599	9.6556
-0.4385	0.5587	9.6574
-0.4331	0.5605	9.6586
-0.4325	0.5593	9.6562
-0.4361	0.5581	9.6550
-0.4367	0.5605	9.6562
-0.4385	0.5587	9.6550
-0.4403	0.5557	9.6574
-0.4397	0.5587	9.6556
-0.4367	0.5623	9.6550
-0.4367	0.5617	9.6592
-0.4367	0.5611	9.6586
-0.4349	0.5593	9.6586
-0.4367	0.5593	9.6556
-0.4385	0.5611	9.6532
-0.4373	0.5605	9.6544
-0.4379	0.5611	9.6544
-0.4385	0.5605	9.6544
-0.4397	0.5617	9.6550
-0.4367	0.5635	9.6556
-0.4355	0.5611	9.6562
-0.4343	0.5623	9.6550
-0.4367	0.5629	9.6532
-0.4349	0.5617	9.6538
-0.4343	0.5593	9.6550
-0.4361	0.5593	9.6532
-0.4373	0.5557	9.6526
-0.4379	0.5551	9.6538
-0.4367	0.5557	9.6568
-0.4379	0.5575	9.6556
-0.4385	0.5623	9.6532
-0.4367	0.5611	9.6562
-0.4355	0.5623	9.6568
-0.4337	0.5599	9.6532
-0.4355	0.5611	9.6532
-0.4349	0.5593	9.6508
-0.4361	0.5587	9.6544
-0.4337	0.5581	9.6532
-0.4337	0.5581	9.6538
-0.4361	0.5569	9.6580
-0.4373	0.5593	9.6574
-0.4343	0.5581	9.6556
-0.4355	0.5593	9.6544
-0.4385	0.5587	9.6556
-0.4355	0.5587	9.6544
-0.4349	0.5605	9.6508
-0.4373	0.5611	9.6574
-0.4361	0.5593	9.6592
-0.4361	0.5587	9.6568
-0.4379	0.5599	9.6568
-0.4373	0.5587	9.6550
-0.4397	0.5593	9.6586
-0.4421	0.5599	9.6544
-0.4385	0.5575	9.6556
-0.4367	0.5575	9.6592
-0.4361	0.5569	9.6550
-0.4379	0.5569	9.6568
-0.4373	0.5563	9.6550
-0.4379	0.5587	9.6580
-0.4355	0.5557	9.6598
-0.4349	0.5569	9.6598
-0.4397	0.5569	9.6568
-0.4391	0.5569	9.6514
-0.4385	0.5569	9.6532
-0.4403	0.5557	9.6532
-0.4397	0.5551	9.6556
-0.4427	0.5581	9.6556
-0.4439	0.5587	9.6562
-0.4403	0.5575	9.6550
-0.4409	0.5569	9.6562
-0.4391	0.5587	9.6562
-0.4379	0.5587	9.6532
-0.4361	0.5575	9.6526
-0.4361	0.5599	9.6532
-0.4379	0.5599	9.6550
-0.4355	0.5599	9.6586
-0.4319	0.5581	9.6586
-0.4319	0.5563	9.6580
-0.4325	0.5563	9.6556
-0.4391	0.5581	9.6526
-0.4367	0.5581	9.6502
-0.4373	0.5587	9.6502
-0.4367	0.5587	9.6520
-0.4373	0.5611	9.6532
-0.4361	0.5623	9.6520
-0.4325	0.5611	9.6514
-0.4313	0.5599	9.6514
-0.4355	0.5593	9.6520
-0.4379	0.5617	9.6532
-0.4373	0.5629	9.6556
-0.4397	0.5635	9.6568
-0.4373	0.5617	9.6550
-0.4385	0.5581	9.6544
-0.4361	0.5581	9.6538
-0.4397	0.5581	9.6556
-0.4379	0.5599	9.6514
-0.4403	0.5593	9.6490
-0.4409	0.5605	9.6490
-0.4391	0.5617	9.6490
-0.4403	0.5629	9.6496
-0.4391	0.5629	9.6514
-0.4367	0.5617	9.6502
-0.4379	0.5629	9.6514
-0.4373	0.5641	9.6520
-0.4385	0.5641	9.6520
-0.4385	0.5635	9.6538
-0.4385	0.5629	9.6532
-0.4379	0.5617	9.6544
-0.4379	0.5623	9.6574
-0.4373	0.5623	9.6586
-0.4355	0.5593	9.6604
-0.4367	0.5593	9.6586
-0.4367	0.5605	9.6556
-0.4355	0.5629	9.6586
-0.4355	0.5623	9.6580
-0.4349	0.5623	9.6580
-0.4343	0.5617	9.6550
-0.4343	0.5617	9.6520
-0.4355	0.5623	9.6514
-0.4355	0.5629	9.6526
-0.4355	0.5647	9.6490
-0.4373	0.5653	9.6520
-0.4355	0.5629	9.6514
-0.4373	0.5617	9.6526
-0.4403	0.5587	9.6514
-0.4397	0.5575	9.6526
-0.4427	0.5575	9.6514
-0.4433	0.5569	9.6538
-0.4439	0.5575	9.6502
-0.4433	0.5605	9.6496
-0.4415	0.5587	9.6514
-0.4415	0.5581	9.6550
-0.4409	0.5617	9.6550
-0.4397	0.5611	9.6538
-0.4409	0.5599	9.6568
-0.4415	0.5599	9.6562
-0.4379	0.5617	9.6550
-0.4391	0.5599	9.6592
-0.4385	0.5611	9.6604
-0.4391	0.5599	9.6574
-0.4403	0.5611	9.6568
-0.4385	0.5611	9.6550
-0.4349	0.5605	9.6550
-0.4349	0.5587	9.6586
-0.4361	0.5581	9.6556
-0.4385	0.5587	9.6544
-0.4373	0.5599	9.6580
-0.4361	0.5611	9.6568
-0.4355	0.5593	9.6544
-0.4367	0.5593	9.6538
-0.4379	0.5629	9.6496
-0.4397	0.5629	9.6496
-0.4391	0.5617	9.6520
-0.4385	0.5623	9.6538
-0.4379	0.5611	9.6550
-0.4391	0.5629	9.6544
-0.4421	0.5617	9.6526
-0.4409	0.5635	9.6514
-0.4409	0.5641	9.6526
-0.4385	0.5647	9.6508
-0.4385	0.5629	9.6508
-0.4373	0.5635	9.6454
-0.4397	0.5617	9.6478
-0.4385	0.5605	9.6484
-0.4415	0.5605	9.6520
-0.4427	0.5635	9.6490
-0.4439	0.5641	9.6472
-0.4421	0.5641	9.6502
-0.4391	0.5623	9.6514
-0.4373	0.5587	9.6484
-0.4391	0.5593	9.8004
-0.4349	0.5587	9.6454
-0.4331	0.5605	9.6484
-0.4331	0.5587	9.6508
-0.4343	0.5587	9.6460
-0.4373	0.5611	9.6430
-0.4403	0.5611	9.6448
-0.4403	0.5599	9.6460
-0.4427	0.5605	9.6442
-0.4433	0.5641	9.6454
-0.4415	0.5635	9.6430
-0.4421	0.5629	9.6430
-0.4397	0.5623	9.6490
-0.4391	0.5641	9.6538
-0.4373	0.5635	9.6514
-0.4361	0.5641	9.6508
-0.4331	0.5647	9.6526
-0.4349	0.5587	9.6580
-0.4367	0.5581	9.6568
-0.4355	0.5575	9.6574
-0.4361	0.5593	9.6574
-0.4397	0.5611	9.6514
-0.4397	0.5599	9.6478
-0.4367	0.5593	9.6478
-0.4361	0.5587	9.6502
-0.4331	0.5587	9.6550
-0.4337	0.5587	9.6580
-0.4361	0.5599	9.6544
-0.4343	0.5599	9.6556
-0.4355	0.5581	9.6580
-0.4319	0.5581	9.6562
-0.4295	0.5581	9.6562
-0.4319	0.5569	9.6538
-0.4361	0.5575	9.6514
-0.4361	0.5569	9.6538
-0.4337	0.5575	9.6544
-0.4349	0.5593	9.6526
-0.4385	0.5599	9.6478
-0.4397	0.5593	9.6460
-0.4403	0.5605	9.6484
-0.4391	0.5617	9.6592
-0.4367	0.5647	9.6580
-0.4403	0.5617	9.6592
-0.4415	0.5623	9.6568
-0.4421	0.5599	9.6556
-0.4415	0.5605	9.6574
-0.4403	0.5593	9.6550
-0.4385	0.5575	9.6538
-0.4373	0.5593	9.6490
-0.4373	0.5599	9.6490
-0.4379	0.5599	9.6478
-0.4367	0.5593	9.6550
-0.4379	0.5605	9.6550
-0.4355	0.5605	9.6532
-0.4373	0.5605	9.6562
-0.4373	0.5581	9.6538
-0.4403	0.5581	9.6532
-0.4379	0.5581	9.6556
-0.4409	0.5599	9.6532
-0.4397	0.5611	9.6520
-0.4391	0.5611	9.6550
-0.4409	0.5617	9.6538
-0.4379	0.5623	9.6544
-0.4367	0.5605	9.6562
-0.4361	0.5605	9.6556
-0.4385	0.5605	9.6514
-0.4385	0.5593	9.6556
-0.4421	0.5599	9.6568
-0.4397	0.5611	9.6526
-0.4403	0.5611	9.6550
-0.4397	0.5599	9.6568
-0.4379	0.5587	9.6538
-0.4367	0.5593	9.6556
-0.4355	0.5593	9.6550
-0.4379	0.5575	9.6544
-0.4373	0.5575	9.6538
-0.4409	0.5575	9.6514
-0.4397	0.5575	9.6502
-0.4391	0.5599	9.6502
-0.4355	0.5587	9.6532
-0.4373	0.5611	9.6538
-0.4385	0.5617	9.6478
-0.4367	0.5611	9.6490
-0.4379	0.5611	9.6490
-0.4409	0.5605	9.6532
-0.4379	0.5611	9.6502
-0.4391	0.5629	9.6502
-0.4409	0.5617	9.6490
-0.4451	0.5587	9.6490
-0.4427	0.5593	9.6520
-0.4421	0.5599	9.6514
-0.4427	0.5587	9.6502
-0.4427	0.5557	9.6526
-0.4433	0.5581	9.6556
-0.4427	0.5587	9.6544
-0.4409	0.5611	9.6538
-0.4403	0.5599	9.6508
-0.4415	0.5599	9.6502
-0.4403	0.5623	9.6508
-0.4385	0.5611	9.6520
-0.4379	0.5611	9.6538
-0.4409	0.5617	9.6556
-0.4373	0.5599	9.6526
-0.4379	0.5581	9.6508
-0.4379	0.5611	9.6520
-0.4391	0.5599	9.6544
-0.4379	0.5599	9.6532
-0.4373	0.5605	9.6562
-0.4355	0.5611	9.6568
-0.4373	0.5611	9.6598
-0.4385	0.5623	9.6550
-0.4355	0.5605	9.6568
-0.4343	0.5587	9.6598
-0.4319	0.5569	9.6598
-0.4337	0.5569	9.6538
-0.4367	0.5557	9.6520
-0.4373	0.5563	9.6532
-0.4385	0.5557	9.6592
-0.4367	0.5569	9.6586
-0.4385	0.5563	9.6532
-0.4349	0.5557	9.6532
-0.4337	0.5563	9.6544
-0.4337	0.5563	9.6580
-0.4325	0.5569	9.6568
-0.4379	0.5605	9.6532
-0.4373	0.5629	9.6502
-0.4403	0.5635	9.6496
-0.4373	0.5635	9.6532
-0.4385	0.5629	9.6508
-0.4379	0.5617	9.6484
-0.4379	0.5629	9.6538
-0.4349	0.5599	9.6550
-0.4313	0.5593	9.6562
-0.4307	0.5599	9.6562
-0.4379	0.5635	9.6562
-0.4397	0.5641	9.6532
-0.4379	0.5635	9.6526
-0.4373	0.5611	9.6526
-0.4385	0.5593	9.6574
-0.4379	0.5605	9.6550
-0.4397	0.5617	9.6514
-0.4391	0.5629	9.6514
-0.4379	0.5617	9.6544
-0.4361	0.5599	9.6580
-0.4373	0.5587	9.6562
-0.4391	0.5593	9.6538
-0.4397	0.5599	9.6544
-0.4373	0.5599	9.6550
-0.4355	0.5599	9.6592
-0.4355	0.5617	9.6568
-0.4343	0.5599	9.6568
-0.4355	0.5635	9.6556
-0.4379	0.5629	9.6562
-0.4355	0.5629	9.6586
-0.4319	0.5635	9.6592
-0.4343	0.5629	9.6556
-0.4349	0.5635	9.6526
-0.4361	0.5611	9.6520
-0.4319	0.5623	9.6508
-0.4343	0.5611	9.6556
-0.4379	0.5629	9.6556
-0.4367	0.5635	9.6550
-0.4367	0.5629	9.6562
-0.4325	0.5611	9.6556
-0.4337	0.5629	9.6538
-0.4337	0.5635	9.6574
-0.4343	0.5605	9.6574
-0.4325	0.5599	9.6550
-0.4343	0.5605	9.6586
-0.4349	0.5593	9.6616
-0.4349	0.5575	9.6604
-0.4367	0.5599	9.6550
-0.4367	0.5623	9.6532
-0.4355	0.5605	9.6526
-0.4367	0.5599	9.6472
-0.4367	0.5605	9.6478
-0.4391	0.5605	9.6436
-0.4367	0.5593	9.6430
-0.4361	0.5587	9.6478
-0.4349	0.5551	9.6496
-0.4331	0.5551	9.6520
-0.4319	0.5551	9.6568
-0.4289	0.5569	9.6562
-0.4325	0.5599	9.6538
-0.4325	0.5569	9.6508
-0.4337	0.5581	9.6532
-0.4331	0.5581	9.6544
-0.4337	0.5587	9.6520
-0.4325	0.5575	9.6484
-0.4337	0.5611	9.6544
-0.4343	0.5593	9.6568
-0.4325	0.5581	9.6556
-0.4343	0.5593	9.6532
-0.4355	0.5605	9.6496
-0.4367	0.5599	9.6484
-0.4355	0.5599	9.6490
-0.4337	0.5575	9.6550
-0.4349	0.5575	9.6556
-0.4355	0.5587	9.6550
-0.4391	0.5575	9.6622
-0.4373	0.5581	9.6598
-0.4385	0.5581	9.6622
-0.4367	0.5569	9.6592
-0.4367	0.5581	9.6574
-0.4385	0.5563	9.6568
-0.4391	0.5593	9.6574
-0.4367	0.5593	9.6562
-0.4421	0.5593	9.6580
-0.4373	0.5599	9.6562
-0.4331	0.5599	9.6568
-0.4343	0.5581	9.6556
-0.4349	0.5587	9.6544
-0.4373	0.5581	9.6568
-0.4367	0.5581	9.6544
-0.4391	0.5593	9.6544
-0.4403	0.5575	9.6526
-0.4409	0.5569	9.6538
-0.4397	0.5539	9.6532
-0.4373	0.5545	9.6544
-0.4385	0.5557	9.6538
-0.4403	0.5581	9.6574
-0.4403	0.5599	9.6574
-0.4415	0.5599	9.6538
-0.4415	0.5587	9.6574
-0.4397	0.5569	9.6586
-0.4379	0.5563	9.6568
-0.4373	0.5563	9.6568
-0.4379	0.5569	9.6562
-0.4349	0.5569	9.6532
-0.4349	0.5575	9.6562
-0.4373	0.5587	9.6532
-0.4385	0.5593	9.6556
-0.4427	0.5599	9.6532
-0.4397	0.5593	9.6508
-0.4397	0.5593	9.6514
-0.4373	0.5575	9.6562
-0.4373	0.5587	9.6550
-0.4367	0.5575	9.6556
-0.4385	0.5611	9.6562
-0.4361	0.5611	9.6550
-0.4355	0.5605	9.6526
-0.4367	0.5605	9.6514
-0.4391	0.5575	9.6514
-0.4397	0.5569	9.6502
-0.4355	0.5557	9.6532
-0.4337	0.5563	9.6562
-0.4349	0.5581	9.6628
-0.4355	0.5587	9.6592
-0.4355	0.5605	9.6556
-0.4385	0.5599	9.6556
-0.4373	0.5593	9.6526
-0.4349	0.5581	9.6556
-0.4343	0.5593	9.6562
-0.4307	0.5587	9.6562
-0.4313	0.5593	9.6580
-0.4331	0.5605	9.6562
-0.4307	0.5623	9.6532
-0.4325	0.5605	9.6538
-0.4343	0.5599	9.6514
-0.4373	0.5593	9.6532
-0.4367	0.5587	9.6556
-0.4343	0.5605	9.6556
-0.4331	0.5611	9.6538
-0.4355	0.5605	9.6580
-0.4361	0.5587	9.6526
-0.4361	0.5617	9.6520
-0.4379	0.5641	9.6538
-0.4361	0.5623	9.6544
-0.4397	0.5623	9.6520
-0.4409	0.5653	9.6544
-0.4379	0.5647	9.6538
-0.4343	0.5629	9.6568
-0.4349	0.5611	9.6568
-0.4373	0.5599	9.6526
-0.4385	0.5611	9.6502
-0.4373	0.5593	9.6496
-0.4409	0.5587	9.6490
-0.4397	0.5587	9.6502
-0.4373	0.5629	9.6514
-0.4373	0.5629	9.6526
-0.4379	0.5623	9.6532
-0.4367	0.5593	9.6520
-0.4373	0.5581	9.6556
-0.4379	0.5575	9.6544
-0.4379	0.5593	9.6562
-0.4403	0.5587	9.6556
-0.4403	0.5593	9.6586
-0.4343	0.5593	9.6586
-0.4349	0.5575	9.6598
-0.4337	0.5587	9.6568
-0.4361	0.5581	9.6568
-0.4391	0.5569	9.6544
-0.4373	0.5587	9.6526
-0.4361	0.5599	9.6532
-0.4385	0.5593	9.6556
-0.4373	0.5587	9.6568
-0.4343	0.5599	9.6520
-0.4361	0.5629	9.6550
-0.4325	0.5635	9.6556
-0.4319	0.5617	9.6526
-0.4319	0.5623	9.6538
-0.4331	0.5617	9.6520
-0.4379	0.5629	9.6538
-0.4355	0.5617	9.6532
-0.4409	0.5605	9.6514
-0.4409	0.5605	9.6544
-0.4439	0.5611	9.6568
-0.4463	0.5599	9.6532
-0.4451	0.5593	9.6544
-0.4415	0.5605	9.6556
-0.4457	0.5605	9.6580
-0.4433	0.5587	9.6580
-0.4433	0.5575	9.6532
-0.4403	0.5575	9.6514
-0.4409	0.5593	9.6508
-0.4403	0.5581	9.6574
-0.4385	0.5575	9.6538
-0.4367	0.5563	9.6556
-0.4391	0.5599	9.6532
-0.4367	0.5593	9.6556
-0.4343	0.5623	9.6532
-0.4337	0.5617	9.6550
-0.4319	0.5611	9.6544
-0.4331	0.5587	9.6580
-0.4319	0.5593	9.6544
-0.4301	0.5593	9.6502
-0.4325	0.5617	9.6508
-0.4295	0.5581	9.6520
-0.4307	0.5593	9.6520
-0.4325	0.5587	9.6514
-0.4319	0.5587	9.6508
-0.4331	0.5581	9.6526
-0.4355	0.5605	9.6538
-0.4361	0.5593	9.6532
-0.4367	0.5587	9.6514
-0.4361	0.5569	9.6568
-0.4385	0.5581	9.6586
-0.4379	0.5551	9.6556
-0.4385	0.5551	9.6568
-0.4355	0.5545	9.6592
-0.4361	0.5575	9.6574
-0.4367	0.5563	9.6550
-0.4349	0.5551	9.6490
-0.4355	0.5569	9.6490
-0.4373	0.5593	9.6496
-0.4379	0.5617	9.6484
-0.4720	0.5641	9.6394
-0.4475	0.5617	9.6275
-0.4421	0.5623	9.6873
-0.4415	0.5647	9.6329
-0.4504	0.5605	9.6358
-0.4062	0.5809	9.6807
-0.4714	0.5934	9.5521
-0.4337	0.5198	9.6891
-0.4576	0.5677	9.6406
-0.4391	0.5653	9.6472
-0.3571	0.6144	9.7250
-0.5336	0.6012	9.4666
-0.4259	0.5252	9.7926
-0.3960	0.6006	9.6053
-0.5252	0.6018	9.4911
-0.3715	0.4971	9.8428
-0.4833	0.5994	9.5473
-0.4642	0.6000	9.5557
-0.3547	0.5378	9.7351
-0.4923	0.6102	9.5928
-0.5198	0.5557	9.6071
-0.3565	0.5246	9.7615
-0.4457	0.5527	9.6191
-0.4594	0.4905	9.5545
-0.4463	0.4660	9.6951
-0.4373	0.6347	9.6364
-0.4008	0.6395	9.5730
-0.4917	0.5282	9.6526
-0.4498	0.5635	9.6370
-0.4481	0.5982	9.6574
-0.4732	0.5821	9.6436
-0.4929	0.5569	9.7208
-0.4696	0.5617	9.6837
-0.6090	0.6042	9.6394
-0.4750	0.5952	9.6885
-0.4941	0.5330	9.6735
-0.4504	0.5587	9.6047
-0.4068	0.5444	9.6281
-0.4211	0.5521	9.6508
-0.4349	0.5815	9.5581
-0.4361	0.5719	9.6861
-0.4696	0.6233	9.6119
-0.4732	0.6245	9.6155
-0.4510	0.5569	9.7310
-0.4457	0.5791	9.6454
-0.4146	0.6108	9.5814
-0.4074	0.5928	9.6454
-0.4690	0.5623	9.5976
-0.4181	0.5599	9.6550
-0.4439	0.5725	9.6490
-0.4594	0.5593	9.5886
-0.4469	0.5336	9.7058
-0.4786	0.5593	9.6352
-0.4606	0.6108	9.5808
-0.4409	0.5557	9.6598
-0.4493	0.5581	9.7130
-0.3164	0.5336	9.6311
-0.3655	0.5186	9.6735
-0.3422	0.4660	9.6939
-0.3434	0.4211	9.6789
-0.3769	0.4552	9.6424
-0.4026	0.4917	9.7286
-0.4104	0.5085	9.6628
-0.4193	0.5318	9.6293
-0.4373	0.5324	9.6921
-0.4373	0.5958	9.6281
-0.3900	0.5192	9.6903
-0.4289	0.4379	9.7639
-0.4684	0.5713	9.6035
-0.4923	0.5581	9.6305
-0.4702	0.5258	9.6855
-0.4367	0.5503	9.5712
-0.4361	0.5300	9.6376
-0.3960	0.5198	9.6909
-0.3823	0.5276	9.5862
-0.3637	0.5037	9.6335
-0.3625	0.5521	9.6191
-0.4056	0.5797	9.6137
-0.4463	0.5480	9.6598
-0.5073	0.6347	9.5988
-0.5097	0.6251	9.5856
-0.4570	0.5324	9.6406
-0.4624	0.5832	9.6430
-0.4415	0.5366	9.6077
-0.4355	0.5360	9.6364
-0.4020	0.5318	9.6412
-0.3954	0.5258	9.6335
-0.3685	0.5497	9.5515
-0.3811	0.5791	9.5742
-0.4217	0.5916	9.5826
-0.4929	0.6341	9.5383
-0.4481	0.5862	9.6131
-0.3147	0.5844	9.6209
-0.4391	0.5856	9.6161
-0.4265	0.5276	9.6556
-0.4373	0.5844	9.5832
-0.4098	0.6084	9.6006
-0.4738	0.5832	9.6173
-0.4379	0.5719	9.6329
-0.3924	0.5970	9.5898
-0.4487	0.7615	9.5922
-0.4229	0.5031	9.6580
-0.3589	0.4708	9.7369
-0.3972	0.4899	9.6652
-0.3888	0.4833	9.7005
-0.4205	0.4822	9.6873
-0.3834	0.5677	9.6771
-0.4325	0.5731	9.6592
-0.3966	0.5282	9.6927
-0.4014	0.5414	9.6969
-0.4229	0.5755	9.6652
-0.4570	0.5563	9.6873
-0.5079	0.5683	9.6634
-0.5151	0.5904	9.6532
-0.4917	0.5982	9.6807
-0.4582	0.5653	9.6855
-0.4307	0.5671	9.6454
-0.4271	0.5647	9.6119
-0.4558	0.5641	9.6329
-0.4319	0.5575	9.7016
-0.4379	0.4678	9.6329
-0.3332	0.4421	9.7537
-0.4199	0.4498	9.7070
-0.3212	0.4373	9.6801
-0.3799	0.4881	9.6891
-0.4146	0.4762	9.6927
-0.3912	0.5444	9.6795
-0.4187	0.5276	9.6568
-0.4457	0.5641	9.7034
-0.4487	0.5689	9.6442
-0.4833	0.6102	9.5976
-0.4744	0.6167	9.6239
-0.5426	0.6144	9.6257
-0.5162	0.6520	9.6119
-0.4211	0.5874	9.6741
-0.4205	0.5695	9.6281
-0.4175	0.5527	9.6478
-0.4660	0.5815	9.6969
-0.4851	0.6556	9.6424
-0.5258	0.6640	9.6221
-0.5527	0.6574	9.6125
-0.4887	0.6072	9.6346
-0.5330	0.6796	9.5814
-0.5043	0.6467	9.6119
-0.5139	0.6784	9.6382
-0.5168	0.6658	9.6053
-0.4026	0.5743	9.6143
-0.3643	0.4971	9.7076
-0.3607	0.4816	9.6352
-0.3649	0.4558	9.6873
-0.4666	0.5521	9.6400
-0.4002	0.6269	9.6006
-0.5468	0.7101	9.6041
-0.5677	0.7220	9.6580
-0.5360	0.6191	9.5353
-0.4839	0.6520	9.6281
-0.4845	0.5737	9.6520
-0.4816	0.6269	9.6059
-0.5180	0.5605	9.5976
-0.4534	0.5061	9.6646
-0.4373	0.5503	9.6891
-0.4421	0.5647	9.6047
-0.4768	0.5982	9.6813
-0.4588	0.6126	9.6149
-0.4558	0.6251	9.7417
-0.5216	0.6532	9.7351
-0.4732	0.5689	9.7166
-0.5234	0.5689	9.6586
-0.4510	0.5438	9.7178
-0.4421	0.5581	9.7501
-0.4283	0.6096	9.6442
-0.4397	0.6508	9.6113
-0.4516	0.5922	9.6580
-0.4122	0.4714	9.7058
-0.4463	0.5659	9.7513
-0.4134	0.5324	9.6634
-0.4152	0.5300	9.6364
-0.4241	0.5360	9.5288
-0.3434	0.5168	9.5533
-0.2530	0.5294	9.7106
-0.3679	0.6263	9.6418
-0.3936	0.5330	9.6125
-0.3260	0.5928	9.5270
-0.2955	0.4618	9.5180
-0.3769	0.4510	9.6915
-0.3876	0.5779	9.5647
-0.4415	0.4522	9.7142
-0.4032	0.5826	9.7800
-0.5228	0.7298	9.6149
-0.5671	0.6778	9.7304
-0.5934	0.7854	9.6083
-0.6108	0.8106	9.4522
-0.5904	0.7286	9.5240
-0.5539	0.7190	9.4839
-0.4893	0.5677	9.4546
-0.4241	0.5378	9.6711
-0.5755	0.6843	9.7142
-0.6538	0.6126	9.6873
-0.6000	0.5671	9.7172
-0.8004	0.7813	9.7483
-0.8596	0.8237	9.6909
-0.7908	0.8034	9.6263
-0.8315	0.8644	9.6376
-0.7178	0.9194	9.5832
-0.5551	0.9625	9.4701
-0.5216	0.7250	9.5371
-0.4780	0.6359	9.4971
-0.2554	0.5970	9.3702
-0.1543	0.4379	9.3541
-0.3404	0.4774	9.3924
-0.4074	0.6688	9.2608
-0.3494	0.6993	9.3523
-0.2094	0.5725	9.6053
-0.3027	0.4959	9.5892
-0.2602	0.4792	9.5234
-0.1047	0.4217	9.6388
-0.2895	0.4056	9.7531
-0.3978	0.4672	9.7519
-0.2656	0.6317	9.5162
-0.2004	0.5139	9.6083
-0.1926	0.4630	9.8207
-0.3159	0.6233	9.7076
-0.3057	0.6239	9.5276
-0.1657	0.5444	9.6526
-0.3679	0.5713	9.7651
-0.5115	0.7155	9.7531
-0.4367	0.8674	9.4923
-0.4367	0.7639	9.5832
-0.4235	0.7609	9.7477
-0.6999	0.9188	9.7148
-0.8171	0.9787	9.6622
-0.6640	0.9242	9.6388
-0.6407	0.6999	9.7238
-0.7196	0.5970	9.9260
-0.6951	0.6897	9.8380
-0.5438	0.5671	9.7513
-0.4630	0.4415	9.7686
-0.4881	0.4540	9.7716
-0.4726	0.4552	9.9744
-0.4277	0.4241	9.9212
-0.2399	0.5390	9.6065
-0.3206	0.4247	9.5868
-0.1741	0.5192	9.6077
-0.3296	0.6024	9.7704
-0.4636	0.6000	9.5659
-0.4893	0.7328	9.4295
-0.5677	0.5408	9.4959
-0.4457	0.4463	9.7585
-0.4714	0.5545	9.8147
-0.6251	0.3954	9.7399
-0.5252	0.6413	9.5820
-0.4301	0.6425	9.3834
-0.4008	0.6640	9.4043
-0.4959	0.7639	9.4797
-0.7406	0.6837	9.7764
-0.6993	0.9505	9.8721
-0.8877	0.9021	9.6364
-0.7448	0.6377	9.5808
-0.4181	0.4845	9.4259
-0.2183	0.3912	9.6981
-0.0730	0.2632	9.8506
-0.2632	0.5121	9.7423
-0.3236	0.4702	9.7890
-0.3093	0.7962	9.5952
-0.5491	0.8369	9.3583
-0.5767	0.5450	9.4109
-0.4678	0.5025	9.4755
-0.2375	0.4804	9.8039
-0.2877	0.3691	9.9451
-0.5162	0.5551	9.9320
-0.7627	0.6245	9.7244
-0.7059	0.8770	9.7525
-0.7639	0.8261	9.4755
-0.7065	0.6275	9.4558
-0.5862	0.7023	9.3188
-0.4660	0.7358	9.4390
-0.4839	0.7597	9.4713
-0.4869	0.4606	9.6604
-0.5019	0.4241	9.9152
-0.3942	0.6203	10.0235
-0.4845	0.6514	9.9732
-0.6778	0.6927	9.8901
-0.6808	0.8764	9.5940
-0.6556	0.9081	9.5294
-0.6987	0.8154	9.2087
-0.5916	0.6586	9.1854
-0.4098	0.5767	9.2033
-0.1974	0.6335	9.2069
-0.1699	0.4014	9.2482
-0.1669	0.1962	9.5144
-0.1531	0.2847	9.7615
-0.0060	0.2560	9.9738
-0.0963	0.3523	10.0713
-0.4953	0.2722	10.2275
-0.3948	0.3625	10.3004
-0.4056	0.4977	10.3357
-0.4774	0.4205	10.4745
-0.7244	0.5994	10.3100
-0.7370	0.7478	10.3692
-0.8608	0.7454	10.3262
-0.8818	0.6867	10.4123
-0.9009	0.6616	10.4021
-0.8638	0.8907	10.3310
-1.0403	0.9200	10.2699
-1.0391	0.6778	10.4805
-0.9547	0.8453	10.4087
-0.9164	0.8829	10.3597
-1.0092	0.9362	10.4350
-0.9499	0.6808	10.6480
-0.8369	0.6598	10.6695
-0.6544	0.7962	10.5559
-0.5994	0.5282	10.3094
-0.5671	0.3033	10.5547
-0.3912	0.3075	10.5421
-0.1657	0.3314	10.5517
-0.0664	0.3230	10.2825
-0.0293	-0.0341	10.0773
0.3033	0.1059	9.8380
0.2668	0.1866	9.4492
-0.0981	0.2812	9.2291
-0.4947	0.5180	9.2440
-0.5031	0.6790	9.2075
-0.5892	1.0475	9.3361
-1.0151	0.8267	9.6957
-0.9739	0.6808	10.0773
-0.4935	0.6108	10.0558
-0.2889	0.4624	9.9661
-0.2070	0.3685	9.6927
-0.3446	0.4229	9.3224
-0.3577	0.7394	9.2512
-0.6879	0.9248	9.2608
-1.1647	0.8255	9.7058
-0.9805	0.8847	9.9463
-0.4265	0.5366	10.0133
-0.0945	0.4899	9.8991
-0.2644	0.2160	9.5018
-0.4313	0.5803	9.2955
-0.4540	0.9482	9.3200
-0.9960	0.7908	9.5497
-0.8889	0.6556	9.8530
-0.4002	0.5246	9.7950
-0.1274	0.5186	9.5138
-0.2943	0.4068	9.3822
-0.7023	0.4648	9.4564
-0.8255	0.8620	9.5437
-0.6616	0.8273	9.9314
-0.4833	0.5007	9.8943
-0.3218	0.3733	9.5545
-0.2369	0.6748	9.1824
-0.4833	0.9458	9.2686
-0.9164	0.7172	9.5264
-0.7029	0.5683	9.7740
-0.0939	0.4648	9.8458
0.1065	0.3254	9.6101
-0.2130	0.4181	9.4456
-0.5348	0.5151	9.5395
-0.5809	0.8483	9.7310
-0.4014	0.6413	9.8961
-0.2285	0.3362	9.6544
-0.1645	0.4582	9.3086
-0.2255	0.7573	9.3056
-0.7735	0.9499	9.4121
-1.0187	0.6766	9.7465
-0.2506	0.5605	9.8231
-0.0580	0.6646	9.3912
-0.5157	0.6173	9.3379
-0.7854	0.4552	9.8584
-0.4792	0.4642	9.8123
-0.2070	0.5605	9.5898
-0.4283	0.5366	9.7016
-0.7017	0.4923	9.8901
-0.3218	0.5192	9.8356
-0.3230	0.6724	9.5629
-0.7101	0.4080	9.6454
-0.1825	0.3637	9.7549
-0.2177	0.7208	9.5353
-0.5127	0.6694	9.6658
-0.3721	0.1777	9.6813
-0.6245	0.5695	9.6819
-0.3476	0.6221	9.6047
-0.3296	0.5838	9.8494
-0.2907	0.2668	9.7567
-0.3709	0.6592	9.6999
-0.3392	0.5707	9.6819
-0.5109	0.5653	9.6849
-0.3320	0.2560	9.6652
-0.0646	0.5145	9.9541
-0.1914	0.5151	9.5736
-0.4205	0.2321	9.7878
-0.3039	0.5342	9.7316
-0.4702	0.7621	9.5024
-0.4463	0.6640	9.7280
-0.4086	0.4211	9.7818
-0.3613	0.3631	9.6945
-0.2716	0.7454	9.6616
-0.6766	0.4923	9.5874
-0.5001	0.6317	9.6891
-0.4594	0.6802	9.5324
-0.5121	0.3517	9.7920
-0.3057	0.5880	9.9966
-0.4146	0.3398	9.4229
-0.2841	0.5318	9.6903
-0.3864	0.2841	9.4707
-0.4959	0.2177	9.6915
-0.1591	0.3811	9.8159
-0.4295	0.2213	9.5318
-0.2542	0.5121	9.8075
-0.3105	0.3248	9.5934
-0.5031	0.2518	9.6670
-0.3565	0.5067	9.7471
-0.3828	0.3254	9.6412
-0.3499	0.6520	9.8494
-0.3404	0.4528	9.6065
-0.5192	0.1107	9.7764
-0.2435	0.5402	9.8129
-0.4481	0.4457	9.3553
-0.5240	0.5174	10.0253
-0.1633	0.5910	9.7328
-0.4899	0.4020	9.6424
-0.5324	0.6203	9.8476
-0.6562	0.5019	9.4767
-0.5414	0.6269	9.7148
-0.3739	0.6221	9.6179
-0.6144	0.3673	9.6945
-0.4199	0.8518	9.7519
-0.5826	0.6347	9.2560
-0.5844	0.5527	9.7854
-0.2608	0.4199	9.5312
-0.4229	0.5031	9.5306
-0.3111	0.8674	9.6173
-0.5127	0.5653	9.3475
-0.3876	0.6144	9.7621
-0.3087	0.5635	9.3493
-0.5653	0.4606	9.7011
-0.4630	0.7262	9.3690
-0.4361	0.6987	9.4414
-0.3188	0.6915	9.9182
-0.5426	0.3918	9.3768
-0.5276	0.4433	9.7244
-0.4086	0.7370	9.4474
-0.2967	0.6550	9.6023
-0.3081	0.6221	9.5964
-0.5366	0.3410	9.5742
-0.4798	0.5635	9.5946
-0.4528	0.6652	9.4073
-0.3775	0.6443	9.6855
-0.4026	0.4845	9.5581
-0.4056	0.5318	9.7932
-0.5043	0.5898	9.4349
-0.3021	0.5270	9.6424
-0.4229	0.5342	9.7878
-0.4181	0.2692	9.5820
-0.1005	0.4714	9.7938
-0.2949	0.5862	9.3625
-0.3117	0.4493	9.9212
-0.1627	0.3912	9.7369
-0.4229	0.3027	9.6711
-0.2782	0.5904	9.5898
-0.5797	0.5695	9.3421
-0.2710	0.5623	9.9523
-0.1143	0.3368	9.3445
-0.4134	0.2530	9.8757
-0.3081	0.6718	9.4163
-0.4175	0.5007	9.4019
-0.2177	0.6006	9.8638
-0.1292	-0.0030	9.4630
-0.2423	0.5067	9.9164
-0.3912	0.7280	9.3673
-0.3517	0.4690	9.5365
-0.4038	0.7083	9.6741
-0.3422	0.3117	9.5808
-0.4265	0.7071	9.3463
-0.4750	0.5240	9.6203
-0.3099	0.6921	9.7411
-0.8118	0.6030	9.5312
-0.5659	0.5462	9.7567
-0.4654	0.8554	9.3355
-0.5611	0.6957	9.8321
-0.4193	0.5103	9.5455
-0.6508	0.3894	9.6921
-0.4152	0.7286	9.4061
-0.4301	0.5139	9.4983
-0.2333	0.6221	9.9978
-0.3404	0.3212	9.6849
-0.3846	0.6215	9.7716
-0.4768	0.7190	9.3116
-0.2752	0.5629	9.7328
-0.5294	0.5557	9.5210
-0.6526	0.4307	9.7459
-0.6179	0.8770	9.4630
-0.6018	0.6915	9.6699
-0.3882	0.4678	9.8662
-0.4510	0.3368	9.7483
-0.4421	0.7860	9.3738
-0.4235	0.6658	9.2907
-0.4648	0.6520	9.7256
-0.4205	0.2967	9.6305
-0.2028	0.4660	9.9098
-0.4128	0.6682	9.4247
-0.3870	0.6814	9.5922
-0.5354	0.6652	9.7507
-0.5904	0.3876	9.8111
-0.4833	0.8566	9.4648
-0.4421	0.6778	9.7334
-0.4223	0.7974	9.5952
-0.9105	0.5946	9.5671
-0.4636	0.6508	9.8111
-0.4199	0.7950	9.3344
-0.4558	0.6538	9.9535
-0.5396	0.3751	9.6101
-0.6562	0.8363	9.7675
-0.7735	0.8919	9.3535
-0.3685	0.6311	9.6478
-0.3805	0.5970	9.6640
-0.4654	0.3135	9.7824
-0.6490	0.7448	9.3350
-0.6161	0.6814	9.5383
-0.3918	0.5025	9.8506
-0.4839	0.2381	9.8919
-0.4241	0.5791	9.7669
-0.3523	0.5491	9.4097
-0.3799	0.5815	9.7992
-0.2943	0.0969	9.6035
-0.1334	0.5246	9.6807
-0.4415	0.5737	9.2069
-0.4367	0.7352	9.4803
-0.4833	0.4905	9.5473
-0.4211	0.2806	9.9475
-0.4199	0.8303	9.5210
-0.4923	0.6843	9.3990
-0.4433	0.7531	9.5760
-0.5659	0.6006	9.7405
-0.4373	0.6012	9.6616
-0.3380	0.8213	9.3894
-0.3045	0.5856	9.6807
-0.3775	0.3099	9.5784
-0.2638	0.4229	9.7872
-0.1986	0.6251	9.4707
-0.2076	0.5797	9.7322
-0.3613	0.0879	9.8739
-0.3595	0.4385	9.8841
-0.5749	0.7884	9.4349
-0.4002	0.6598	9.6107
-0.3595	0.3517	9.8392
-0.3601	0.3511	9.7453
-0.4098	0.6126	9.3936
-0.3607	0.6843	9.5324
-0.3434	0.2937	9.7028
-0.2411	0.2064	9.8913
-0.2112	0.5001	9.5485
-0.3499	0.7071	9.2757
-0.5157	0.6030	9.8530
-0.4289	0.1651	9.6604
-0.1836	0.5665	9.8165
-0.5264	0.8578	9.5162
-0.6455	0.6126	9.3134
-0.6383	0.6227	9.7956
-0.5677	0.4576	9.7489
-0.4792	0.9164	9.3936
-0.5067	0.7448	9.3170
-0.4546	0.4929	9.5467
-0.5653	0.5157	9.5718
-0.4762	0.7304	9.3451
-0.3607	0.8387	9.3720
-0.4750	0.3039	9.7507
-0.5569	0.3069	9.5545
-0.3757	0.6993	9.6281
-0.3368	0.6239	9.5054
-0.3858	0.3111	9.7124
-0.5396	0.3135	9.7896
-0.3655	0.6030	9.4498
-0.3751	0.6891	9.3912
-0.4002	0.3159	9.7746
-0.3176	0.0766	9.7519
-0.2632	0.4959	9.6580
-0.3063	0.8680	9.2853
-0.3476	0.3984	9.6550
-0.0748	0.2058	9.9451
-0.2363	0.2841	9.8721
-0.2435	0.6126	9.5365
-0.3631	0.6431	9.6287
-0.2901	0.0891	10.0534
-0.3123	0.3823	9.9212
-0.3655	0.9541	9.5838
-0.4744	0.5731	9.2321
-0.5186	0.3368	9.8931
-0.3565	0.4487	9.7417
-0.3182	0.9547	9.1118
-0.3799	0.7998	9.5886
-0.3954	0.1005	9.6017
-0.5725	0.5533	9.9158
-0.3972	0.8734	9.5156
-0.4253	0.6778	9.6113
-0.4869	0.2154	9.7447
-0.5569	0.4684	9.6012
-0.4965	0.8411	9.6759
-0.3009	0.7376	9.4779
-0.5360	0.3428	9.8333
-0.5103	0.2997	9.7268
-0.5683	1.0588	9.2691
-0.6120	0.9906	9.4534
-0.3464	0.2459	9.5850
-0.3996	0.3446	9.9649
-0.6024	0.9075	9.1597
-0.6209	1.0875	9.1322
-0.4833	0.4481	9.6951
-0.5109	0.4624	9.7902
-0.5509	0.7657	9.4588
-0.2620	0.6927	9.2470
-0.3224	0.2536	9.5563
-0.3733	0.2560	9.7794
-0.3864	0.7382	9.3996
-0.2788	0.8518	9.3248
-0.5037	0.3368	9.4684
-0.3799	0.2818	9.8775
-0.3595	0.6556	9.3188
-0.2824	0.9960	9.3637
-0.4487	0.3446	9.4642
-0.6221	0.5019	9.5838
-0.5043	0.7011	9.4522
-0.2393	0.9577	9.4025
-0.5719	0.4397	9.5898
-0.7567	0.2291	9.6035
-0.4786	1.0403	9.4426
-0.2967	1.0893	9.3876
-0.3912	0.2136	9.5916
-0.7334	0.4235	9.9475
-0.6628	0.9924	9.1501
-0.5174	1.2562	9.3840
-0.4223	0.3661	9.6664
-0.6520	0.5210	9.9116
-0.6197	0.9224	9.3924
-0.5647	1.0283	9.4014
-0.2644	0.2207	9.9469
-0.2656	0.2100	10.0528
-0.3266	0.9858	9.4755
-0.2824	0.5922	9.2267
-0.2142	0.0437	9.8590
-0.0981	0.3260	9.8817
-0.2022	0.9362	9.2063
-0.4217	0.7872	9.4277
-0.5515	0.1029	9.6795
-0.3733	0.6736	9.7405
-0.3111	0.9649	9.2584
-0.4929	0.7591	9.5766
-0.8465	0.3296	9.6855
-0.5198	0.5815	9.6855
-0.2764	1.0163	9.4037
-0.4558	0.6209	9.6550
-0.7986	0.1059	9.7489
-0.5174	0.6622	9.5401
-0.1651	1.0905	9.3978
-0.4977	0.6981	9.4480
-0.7938	0.2022	9.8566
-0.5240	0.9565	9.5210
-0.3906	0.9428	9.3200
-0.1549	0.3302	9.7286
-0.5515	0.1765	9.9152
-0.6335	0.9039	9.6801
-0.4792	1.0325	9.1005
-0.3661	0.3051	9.4666
-0.6772	0.4229	9.9170
-0.6323	1.0409	9.4522
-0.3559	0.7998	9.4169
-0.4941	0.0598	9.5204
-0.3356	0.5157	10.1120
-0.4062	0.8584	9.1794
-0.4205	1.0558	9.3876
-0.7681	0.4056	9.5712
-0.4074	0.5228	9.9415
-0.4971	0.8309	9.0478
-0.4636	0.8159	9.7280
-0.6939	0.1795	9.5688
-0.5109	0.4265	9.6999
-0.0730	1.0486	9.6981
-0.4439	0.4839	9.2895
-0.8835	0.2907	9.9798
-0.6353	0.8518	9.5330
-0.2829	0.9087	9.5958
-0.1208	0.4158	9.3900
-0.6981	0.2076	10.0791
-0.7244	1.0319	9.5665
-0.3188	0.8566	9.3475
0.0012	0.3817	9.5359
-0.3541	0.3769	10.1904
-0.7149	0.8578	9.4151
-0.6359	0.6736	9.1292
-0.6096	0.4433	9.8913
-0.5330	0.5826	9.8745
-0.4313	0.7992	9.3535
-0.7166	0.7107	9.2428
-0.7675	0.2058	9.7896
-0.5474	0.9218	9.8398
-0.4104	0.9188	9.3613
-0.3882	0.3661	9.4259
-0.4391	0.2716	9.8237
-0.3212	0.6879	9.8500
-0.1513	0.5719	9.4546
-0.1729	0.3685	9.6909
-0.6018	0.1813	9.8207
-0.2620	0.7304	9.5790
-0.3129	0.7160	9.6687
-0.6658	-0.0754	9.8817
-0.6742	0.6981	9.6317
-0.2160	0.8177	9.6245
0.0215	0.4098	9.2159
-0.4546	0.1777	9.8165
-0.7274	0.8668	9.8010
-0.4899	0.8883	9.3756
-0.0820	0.6951	9.3206
-0.4343	0.4923	10.0175
-0.8590	1.0684	9.5156
-0.6640	0.9350	9.0604
-0.3368	0.3781	9.6807
-0.4923	0.6514	10.1282
-0.2949	0.8106	9.5629
-0.5306	0.6760	9.1621
-0.4516	0.2889	9.8937
-0.5366	0.7777	9.7657
-0.1645	0.7406	9.5575
-0.0975	0.2548	9.4235
-0.3924	0.5228	9.8021
-0.3601	0.7938	9.7280
-0.3948	0.4217	9.3499
-0.4983	0.2853	9.4881
-0.5731	0.2907	9.6729
-0.1256	0.5318	9.3912
-0.0885	0.4696	9.3529
-0.4810	0.1531	9.6777
-0.7101	0.8411	9.7471
-0.5539	0.9135	9.5682
0.1005	0.2165	9.3164
-0.4397	0.3368	9.7429
-0.6191	0.7842	9.8709
-0.7400	0.5779	9.0263
-0.3918	0.0670	9.4857
-0.3811	0.6461	10.0707
-0.4421	0.6455	9.3421
-0.0981	0.2883	9.5036
-0.3063	0.0299	9.7680
-0.3882	0.7472	9.7328
-0.6927	0.5300	9.5054
-0.2429	0.1047	9.5539
-0.3972	0.3984	9.4695
-0.0873	0.9290	9.9314
-0.5491	0.3248	9.3433
-0.5719	0.1352	9.6849
-0.5330	0.6281	9.8524
-0.0688	0.6096	9.6646
0.0676	0.2847	9.1579
-0.3840	0.2495	10.1276
-0.3649	0.3703	9.5946
-0.3494	0.5832	9.6418
-0.4140	-0.1274	9.9798
-0.6526	0.4827	9.5569
-0.5743	0.8022	9.9732
0.0299	0.1478	9.1675
-0.1460	0.1328	9.8590
-0.5468	0.8124	9.9708
-0.7041	0.3446	9.2458
-0.1848	-0.0150	8.9569
-0.2536	0.5713	9.7082
0.0604	0.4654	9.4797
0.1418	0.0251	9.2482
0.0993	0.1412	9.8315
-0.2483	0.6831	9.3804
-0.4439	0.3386	9.4199
-0.4660	0.1866	9.6508
-0.4397	0.4283	9.4648
-0.2345	0.6784	10.0552
-0.0718	0.0084	9.5007
-0.4355	0.2489	9.3170
-0.5761	0.7968	10.0821
-0.1490	0.3021	9.7423
-0.4337	-0.0700	9.5641
-0.6820	0.5575	9.9996
-0.2441	0.7531	9.9164
0.3499	0.2465	9.4049
-0.2261	0.2800	10.0145
-0.5001	0.6909	9.9230
-0.7896	0.5791	9.6825
-0.1561	0.1310	9.5700
-0.0802	0.9338	9.7782
-0.3212	1.0911	10.1413
-0.1663	0.0257	9.7040
-0.1388	0.7813	9.6478
-0.4648	1.3807	10.1593
-0.5139	0.2219	9.4737
-0.4301	0.1340	9.6891
-0.3452	1.0349	9.7669
0.2315	0.8076	9.8362
-0.1226	0.0981	9.5742
-0.3906	0.5761	9.4516
-0.1328	0.7585	9.7064
-0.0802	0.6957	9.7292
-0.3159	-0.1053	9.1154
-0.4923	0.9248	9.6526
-0.4367	1.0606	9.6538
0.1866	-0.0191	8.9342
-0.1304	0.3099	9.8494
-0.3362	0.7747	9.9326
-0.5958	-0.0066	9.3714
-0.4277	0.1119	9.6370
-0.7693	1.0187	9.6981
-0.8973	0.8052	9.7184
-0.3978	-0.0933	9.6496
-0.2913	0.2806	9.3272
-0.6502	1.1743	9.8350
-0.9757	-0.1155	9.7322
-0.4726	-0.3571	9.0376
-0.8668	1.5840	10.2496
-0.7980	0.6156	9.5288
-0.7579	-0.0873	9.5790
-0.6078	0.8064	9.6699
0.0431	1.3154	9.6544
0.1854	0.0832	9.7962
-0.5533	0.1657	9.3631
-0.1675	0.7448	9.8075
0.0718	0.4780	10.2400
-0.3793	-0.3906	9.0197
-0.7292	1.3687	9.8087
-0.3811	0.8578	9.7902
0.2453	-0.3224	9.3242
-0.2207	0.9906	9.6580
-0.6419	1.4656	9.6735
-0.3625	-0.1484	9.4295
0.0371	0.0736	9.5527
-0.5946	1.4877	9.3774
-0.8973	0.5587	9.5108
-0.2100	-0.6867	9.8877
-0.2560	0.9218	9.2638
-0.1968	1.8963	9.6831
-0.0173	-0.4259	9.6502
-0.1172	0.0311	9.4695
0.0634	1.2951	9.7471
-0.0652	-0.0628	9.7334
-0.6084	-0.1711	9.4689
-0.7998	1.0463	9.3792
-0.2267	0.7160	10.1270
-0.2058	-0.2991	9.6269
-0.9290	0.8650	9.1525
-0.5474	1.8096	9.8614
0.0359	-0.1065	9.8428
-0.2973	0.5468	9.2632
-0.5976	1.5691	9.6185
-0.5468	0.3541	10.3896
0.1687	-0.6054	9.6693
-0.4528	1.3226	9.3104
-0.8853	1.4788	9.9499
-0.4331	-0.6341	9.3266
-0.1920	0.3912	9.4432
-0.5348	2.1565	9.6071
-0.3290	0.1208	9.5108
-0.3745	-0.3595	9.8835
-0.5677	1.4201	9.7298
-0.7615	0.9260	9.8518
-0.4403	-0.4175	9.9481
-1.0768	1.3154	9.5778
-1.1210	1.3454	9.6323
-0.4026	-0.2632	9.3272
-0.0736	0.4947	9.2039
-0.5641	1.7731	10.0642
0.2016	-0.6855	9.3918
0.3212	0.0556	9.3619
-0.4379	2.0596	9.3888
-0.8267	0.7657	9.4378
-0.0957	-0.4720	9.5862
-0.9326	1.9382	9.3774
-1.0618	1.4506	9.2339
-0.4588	-0.6269	9.9463
-0.3434	0.4839	9.0640
-0.7866	1.8437	9.5407
0.3003	-0.1687	9.8751
-0.2201	-0.3482	8.9581
-0.5821	1.8317	9.6006
-0.0897	0.7938	10.0181
-0.2806	-0.4540	9.3344
-1.1958	1.8311	9.7334
-1.2401	1.2287	9.5515
-0.3188	0.0054	9.8428
-0.9811	1.8149	9.3625
-1.3860	1.6732	9.8548
-0.1591	-0.7807	9.9517
-0.2961	0.8704	9.1100
-0.7059	2.0955	9.5629
0.2261	-0.6263	10.1461
0.1699	-0.6425	9.3481
-0.4498	1.7725	9.7704
-0.2524	0.6120	9.9750
-0.4558	-0.4564	9.5425
-0.7460	1.5386	9.3649
-0.6688	0.9200	9.6454
-0.2094	-0.3164	9.4899
-0.9105	0.9583	9.2650
-1.1755	1.4231	9.6586
0.0431	-0.4427	9.4809
-0.2794	0.7041	8.8468
-0.8417	1.7958	9.6364
-0.3326	-0.7573	10.1270
0.1334	0.2165	9.6382
-0.5683	1.9382	9.4145
-0.2943	0.2070	10.0037
0.0024	-0.5964	9.3517
-0.2662	1.7874	9.2967
-0.2812	0.8722	9.6670
-0.2877	-0.3655	9.5820
-0.6072	1.0217	9.3116
-0.7789	1.0744	9.5419
-0.5330	-0.4098	9.3774
-0.8261	0.8351	9.0927
-1.1013	1.2490	9.7495
-0.2770	-0.5216	9.8823
-0.4289	0.7208	9.2021
-1.1725	2.0512	9.5551
-0.5186	-0.1358	10.0845
0.0191	0.2052	9.5934
-0.3817	1.8873	9.3972
-0.3852	0.3990	10.0522
-0.3159	-0.0939	9.3344
-0.5121	1.3005	9.6933
-0.3422	0.6879	9.8111
-0.2279	-0.0401	9.4390
-0.7567	1.0702	9.4366
-0.6419	0.6730	9.7136
-0.3093	-0.3673	9.6717
-0.5844	1.1037	9.0670
-1.1665	1.0014	9.6424
-0.4863	-0.5097	9.7627
-0.8961	1.0116	8.9665
-0.6167	1.7515	9.3260
-0.6616	-0.1436	10.5140
-0.3733	0.2602	9.3296
-0.6688	1.8233	9.6448
-0.4134	0.2782	10.2574
-0.6102	-0.2698	9.2075
-0.8327	1.3914	9.6693
-0.5258	0.3643	10.1718
-0.2345	-0.5198	9.6855
-1.0905	1.5093	9.4797
-1.2173	0.5862	9.6981
-0.3188	-0.0030	9.8811
-0.6437	1.3741	9.1453
-1.3011	1.0020	10.0989
-0.2261	-0.4564	9.7088
-0.7352	1.5912	8.9025
-0.9655	1.6044	9.5030
-0.3631	-0.3673	10.1054
-0.6682	0.7561	9.0221
-0.9248	1.7803	9.4151
-0.1848	-0.1675	9.7794
-0.5797	0.6485	9.4504
-1.2383	1.4034	9.2392
-0.3063	0.4774	10.1168
0.2841	0.2058	9.1914
-0.9571	1.7174	9.3601
-0.3751	0.2530	10.1330
0.2399	-0.0604	9.4767
-0.6676	2.0387	9.3918
-0.7902	0.5773	9.5766
-0.1681	0.1137	9.8572
-0.4169	1.5888	9.4277
-0.4146	0.6042	9.6699
-0.0365	-0.1591	9.9104
-0.1364	0.7627	9.2010
0.0012	0.8225	9.7005
0.1388	-0.3224	9.5796
-0.7711	0.9727	9.0556
-1.1599	0.6993	9.5772
-0.0287	-0.0706	9.5766
-0.2429	1.2245	8.8085
-1.4710	1.5954	9.4031
-0.6227	-0.4110	9.5754
-0.4714	1.1491	9.1866
-1.0403	1.6995	8.8755
-0.5605	-0.2985	9.7256
-0.1525	0.7310	9.2901
-0.7549	1.4847	9.5790
-0.5426	-0.0550	9.8476
-0.4481	0.4044	9.6000
-0.9733	1.0798	9.3918
-0.4714	0.2046	10.1324
0.1777	0.1585	9.7202
-1.0552	1.3172	9.6101
-0.5115	-0.2602	10.0791
0.1442	-0.0855	9.7854
-0.0497	1.2682	9.0891
-0.6897	0.0479	9.9834
-0.3745	-0.0323	9.6281
-0.4929	1.1468	9.4779
-0.7771	0.4648	10.2819
-0.5946	0.1980	9.6185
-0.3918	0.8800	9.5258
-0.1633	0.3984	10.1682
-0.1472	0.5294	9.7830
-0.7872	1.3765	9.7357
-0.5623	0.2794	10.1006
0.0419	0.3368	9.5940
-0.5145	1.7384	9.3164
-1.0642	0.2824	10.1473
0.0108	-0.2997	9.8350
-0.4690	1.4919	9.2578
-0.5779	0.8333	10.0606
-0.2477	-0.3834	9.9050
-0.2680	1.2221	8.8606
-0.1065	0.7089	9.7956
-0.0814	0.2213	9.9373
-0.8602	1.0702	9.0699
-0.4708	0.8052	9.8362
0.2979	0.2973	9.6221
-0.7795	1.4883	8.9736
-0.8261	0.3135	9.9278
0.0921	0.1370	9.9332
-0.3057	1.6134	9.1830
-1.2586	0.7645	9.6909
-0.4618	-0.4726	10.2119
-0.4367	1.1402	9.4678
-0.7908	0.8829	9.5030
-0.7071	0.0419	9.7160
-0.2363	0.9362	9.2638
-0.3404	0.4935	10.0869
0.1460	0.2321	9.6203
-0.7669	0.8315	9.0269
-0.8052	0.2542	9.6215
0.2632	0.1292	9.6281
0.1795	1.2975	8.7128
-0.4558	0.3105	9.8518
0.3015	-0.5587	9.7465
0.2506	0.9464	9.2919
-0.3529	0.7023	9.2183
-0.3248	-0.2985	9.9314
-0.2614	0.7059	9.4480
-0.6676	0.7519	9.3924
-0.5216	0.2321	9.7591
-0.6909	0.5587	9.3714
-0.3105	0.1005	10.2197
0.2231	0.2255	9.7005
-0.6867	1.1073	9.0538
-0.8177	0.1998	10.2287
0.4618	-0.3356	10.1246
-0.0245	1.5870	8.9952
-0.5868	0.6897	10.0803
0.1561	-0.5480	10.1868
0.0018	0.7651	9.1681
-0.6353	0.8973	9.4079
-0.3511	0.1053	9.6466
-0.1059	0.3087	9.5886
-0.3888	0.5145	9.4486
-0.0706	0.4301	9.4019
-0.4666	0.3972	9.5407
-0.2177	-0.3392	10.2245
0.3434	0.4899	9.4139
-0.4684	1.1354	9.2392
-0.5240	-0.7591	10.0157
0.1747	-0.2620	9.7286
-0.6066	1.7432	8.7637
-0.7501	0.4702	9.9433
-0.2393	0.1615	9.7968
-0.5234	1.4339	8.7009
-0.9009	0.9368	9.3822
-0.6556	0.4116	9.9014
-0.9278	0.8608	9.3242
-0.7920	0.8530	9.6394
-0.3966	1.2718	9.5928
-0.9930	0.4504	9.4935
-0.4983	-0.2195	10.2299
-0.0251	1.0415	8.9539
-1.0163	1.0110	9.5706
-0.3727	-0.5844	10.1605
-0.0652	0.3924	9.5587
-0.7854	1.4285	9.1573
-0.8327	-0.5623	10.1054
-0.2381	0.2022	9.7226
-0.3159	1.1569	8.8103
-0.2249	0.5480	9.9834
-0.0502	0.3846	9.3487
-0.2542	0.1783	9.6484
0.0808	0.5545	9.6687
-0.4810	1.0654	8.8139
-0.5832	0.1178	10.2317
-0.0347	0.0305	9.5557
-0.5228	1.7288	9.0113
-0.9440	0.1938	9.4648
0.1346	-0.5007	10.5056
-0.1848	1.7037	8.9653
-0.9224	1.0750	9.3314
-0.4552	0.2441	10.2173
-0.4421	0.7663	9.9230
-0.8578	0.5910	9.1441
-0.8333	1.1928	9.6095
-1.0786	1.1426	9.4713
-1.0008	0.6024	9.4767
-0.5641	1.5493	9.7286
-0.9123	0.5653	9.2016
-0.3027	-0.3643	10.4416
-0.3589	1.6229	9.2488
-1.1270	1.3878	8.9808
-0.1603	-0.4259	10.3136
0.0784	0.4792	9.6921
-0.7214	0.9978	8.9545
-0.8877	0.3667	9.4959
-0.4600	0.5527	9.6855
-0.4445	0.9236	8.6793
-0.0628	0.3565	9.9732
0.2004	0.4415	9.1932
-0.1256	-0.1472	9.5102
-0.2411	1.0648	9.3864
-0.6724	0.9553	8.7714
-0.2590	-0.5563	10.4578
-0.1896	0.8076	9.4845
-0.5216	1.6451	9.0341
-0.5803	-0.3864	10.0097
0.0532	0.3320	10.0025
-0.5432	1.5302	8.8008
-0.6778	-0.1795	9.9906
-0.0060	0.1262	10.1539
-0.5749	1.3956	8.9168
-0.7621	0.7836	9.3254
-0.3607	0.3123	9.8979
0.1298	-0.0897	9.7106
-0.5593	0.5701	9.4109
-0.5462	1.3884	9.2171
-0.4935	-0.3296	9.6616
0.0497	0.3565	9.9804
-0.7388	1.7910	9.0855
-0.8770	-0.1914	10.5068
0.1687	-0.2560	10.3992
-0.8662	1.7282	8.6757
-1.1874	0.6706	9.4570
-0.2459	-0.3099	10.8376
-0.1023	1.2419	9.1776
-1.0917	1.2682	9.1387
-0.4827	0.7238	10.4955
-0.2034	0.4475	9.5934
-0.7992	0.8937	9.6747
-0.8632	0.7286	9.7100
-0.0084	-0.1466	10.4081
0.2321	0.5617	9.7902
-0.6592	1.8622	8.6153
-0.4810	0.0616	9.8291
0.3990	-0.2835	10.2245
-0.4379	1.8861	8.8767
-1.3507	0.7083	8.8660
-0.3996	-0.3332	10.1964
-0.9739	1.7617	8.8349
-1.8203	1.1755	9.1944
-0.2255	0.0772	10.1814
-0.4833	1.1922	9.3846
-0.9984	0.9362	9.0287
-1.0648	0.8782	9.5545
-0.3864	0.1370	9.2739
-0.4385	0.2285	9.2225
-0.5186	0.8973	9.1944
-0.7968	-0.5605	9.9661
-0.4032	0.0682	10.1126
-1.2837	1.8909	9.1902
-1.0804	0.0718	10.1874
-0.1735	-0.4325	10.4021
-0.8883	1.7982	9.1830
-0.9170	0.9093	9.3595
0.2423	-0.6108	10.3926
0.0485	1.4058	8.8438
-0.8285	1.1785	8.8055
-0.2052	0.3296	10.2658
-0.2309	1.3274	9.4845
-0.9272	1.1773	9.2285
-0.1914	0.6604	9.9104
-0.0449	0.2907	9.9607
-0.5515	0.7047	9.5084
-0.8782	1.3370	9.1220
-0.7244	0.0915	9.7070
0.2088	0.3757	9.5802
0.2417	1.5703	9.2829
0.0072	-0.4229	9.8883
0.4827	-0.7017	10.1491
0.0030	1.4943	9.3571
-0.7035	0.0993	9.2626
-0.0006	-0.1334	10.3854
-0.6126	1.7677	8.9605
-0.6030	0.5934	9.7070
0.1908	-0.0371	10.2664
-0.1035	1.0074	9.2506
-0.7878	1.1557	9.3876
-0.5157	0.6849	9.7166
0.1047	0.1501	9.3589
-0.1974	0.6359	9.9003
-0.5007	0.5755	9.2225
-0.6353	0.3338	9.4366
-0.8255	0.8560	9.4163
-0.9511	1.4853	8.9120
-0.8524	-0.1346	9.7507
-0.0867	0.6688	9.6185
-0.8201	2.1745	8.8133
-1.1360	-0.0323	9.2051
-0.4863	1.0510	9.6335
-0.7059	1.4488	8.9001
-0.6299	-0.3565	9.5784
-0.2423	0.4810	10.2167
-0.4947	1.3178	8.6877
-0.8225	0.6060	9.4749
-0.4223	0.6640	9.9720
0.0335	0.5091	9.3690
-0.0311	0.6496	10.0713
-0.4044	0.3799	9.4307
-0.7549	0.0431	9.8709
-0.5480	1.1820	9.5449
-1.0558	0.9817	8.8582
-0.5097	-0.5958	10.1946
-0.2291	1.2718	9.6017
-0.5157	0.7926	9.1681
-0.3135	-0.7830	10.3262
-0.0203	1.0223	9.7100
-0.3057	0.9129	9.4085
0.1448	-0.9912	10.4883
0.1819	0.6867	9.5336
-0.2231	1.1019	9.3373
-0.4588	0.1842	9.7896
-0.2118	0.8393	10.0947
-0.6969	0.5527	9.3553
-0.5240	0.4068	9.8572
0.0353	-0.2273	10.3447
-0.2345	0.1005	9.7657
-0.5025	1.3364	9.2548
-0.8901	-0.1214	9.5898
-0.3745	0.3960	9.9816
-0.4887	1.9412	9.2135
-0.6879	-0.0203	9.6795
-0.3075	0.3015	9.8745
-0.4720	1.5362	9.3954
-0.7537	-0.1765	9.7734
-0.1394	0.3793	10.2323
-0.5127	1.1097	9.1722
-0.7968	-0.4385	10.0073
-0.4349	0.0461	10.0630
-0.3745	0.9703	8.9389
-0.4947	0.7071	9.6909
-0.2046	0.2441	9.8015
-0.2195	0.1280	9.6999
-0.3607	0.7932	9.4642
-0.4522	0.3637	9.8889
-0.2142	-0.0957	9.9146
-0.8189	1.7372	9.3978
-0.8871	1.0427	9.2195
-0.0909	-0.8680	9.9984
0.0508	1.6636	9.8524
-0.5821	0.5085	9.4193
-0.3326	-0.5222	10.2819
-0.8189	1.7450	8.7601
-0.5264	0.8877	9.3960
-0.1765	-0.0126	10.3429
-0.4666	1.0929	9.2386
-0.8913	1.1354	9.7519
-0.6676	0.1454	9.8835
0.0281	0.5587	9.2099
-0.5151	0.9775	9.5802
-0.7160	0.5031	9.4217
-0.6945	0.2608	9.8763
-0.4379	0.9882	9.6263
0.1155	0.8136	9.4755
0.0215	-0.8542	9.8644
-0.0162	0.7968	9.6107
-0.4110	1.1761	9.1136
-0.1974	-1.0989	9.8398
-0.1657	1.2401	9.4504
-0.8823	1.7198	8.8217
-0.5300	-0.5282	10.2897
0.0108	0.9775	9.2919
0.0915	0.5408	9.5850
0.0102	-0.6024	10.3854
0.3003	0.1196	9.6789
-0.3499	0.8064	9.7878
-0.5491	0.3817	9.9523
-0.0634	0.0144	9.8901
-0.1825	0.4546	9.8973
-0.1418	0.3117	9.6813
-0.1490	-0.8255	9.7262
-0.3176	0.3021	9.5706
-0.5306	1.9071	9.3924
-0.5025	-0.6144	9.6059
-0.1131	0.0144	9.8045
-0.6969	2.0961	9.4127
-0.7334	-0.4277	9.8129
-0.2620	0.5797	9.9062
-0.9978	1.5158	8.7960
-0.6293	-0.7394	10.0049
-0.0855	0.3571	9.9230
-0.1418	1.0349	8.9186
-0.7890	0.2279	10.0253
-0.1513	0.3021	9.5796
-0.2261	0.8488	9.7561
-0.1280	0.6473	9.8805
0.2357	-0.5486	9.4869
-0.0449	-0.1382	9.7118
-0.2578	0.9392	9.0795
-0.2590	0.0724	9.4295
-0.4690	0.3619	9.5946
-0.6879	2.1882	9.0388
-0.3966	0.4050	9.6855
0.0628	-0.7795	10.0785
-0.2512	1.7940	9.2362
-0.8279	0.7543	9.2590
-0.4827	-0.0897	9.7818
-0.5402	1.5601	8.9150
-0.9386	0.3763	9.2566
-0.4570	0.1292	10.2329
-0.6706	1.7545	8.8707
-1.4656	0.8877	9.3116
-0.5025	0.4893	9.9050
-0.2285	0.4451	9.2237
-0.4217	0.9446	9.7692
-0.7208	0.5701	9.5850
-0.6018	0.0610	9.9152
-0.7107	1.7701	9.4743
-1.0929	1.4614	9.2123
-0.5240	-0.4271	9.9864
-0.1501	0.8351	9.8153
-0.1226	0.2752	9.7746
-0.2566	-1.3250	10.2508
-0.1178	0.8273	9.4384
-0.6203	1.2993	9.3840
-0.1902	-1.0361	10.0845
-0.1166	1.1545	9.5533
-0.3212	1.3573	9.3888
-0.1926	-0.2901	10.1994
-0.1424	0.9565	9.5904
-0.6156	0.8985	9.0179
-0.5731	0.5456	10.0863
-0.1657	0.2800	9.5742
-0.4080	0.7783	9.4815
-0.8590	1.3154	9.4432
-0.2818	-0.5593	10.0121
0.1017	0.4768	9.9296
-0.6706	1.5918	9.0604
-0.7484	-0.3338	9.6574
-0.3051	0.5204	10.0456
-0.6652	1.5266	9.1357
-0.9834	0.0126	9.8769
-0.6209	0.9834	9.5647
-0.8548	1.4865	9.1381
-0.2997	-0.3936	10.4937
0.0676	0.5587	9.3625
-0.1884	1.2353	9.3068
-0.2136	-0.2530	9.9379
0.0120	0.6825	9.8512
-0.2058	0.8877	9.3655
-0.4331	0.3978	9.6765
-0.0616	-0.1860	9.9786
-0.1693	0.1041	9.8985
-0.6664	1.5176	9.8063
-0.7424	0.4355	9.5126
-0.4391	0.5270	9.7328
0.0060	1.4004	9.2650
-0.0640	-0.7113	9.7381
0.0957	0.2758	9.9134
-0.9021	2.2002	9.0400
-1.0092	-0.0873	9.9762
-0.0987	-0.1813	9.6412
-0.3781	1.5290	9.5377
-0.4235	-0.6963	10.3800
-0.0897	-0.0634	10.2035
-0.5372	1.3436	9.0149
-1.2784	0.5605	10.0013
-0.6969	0.7454	9.8279
-0.5462	0.9990	9.3332
-0.2088	0.3368	10.0019
0.1621	-0.2686	9.8817
-0.1962	0.0473	9.6646
-0.6311	1.4118	9.4534
-0.7089	0.1077	9.6568
-0.3302	-0.1298	10.0067
-0.3601	1.7808	9.7340
-0.5288	-0.4463	9.9978
-0.0508	-0.2722	10.1509
-0.7334	1.5499	9.0598
-0.5898	-0.0742	9.8237
0.2028	0.1035	9.9122
-0.1633	1.7820	9.0269
-0.4732	-0.2225	10.4015
0.1202	-0.1376	9.9972
-0.4283	1.3148	9.2739
-0.7137	-0.1472	9.9792
-0.3966	0.4487	10.1886
-0.6550	1.0307	9.3553
-0.3129	0.2979	10.1204
-0.0185	0.2985	9.7651
-0.0826	0.2393	9.4121
-0.6341	0.6676	9.8309
-0.5713	0.4295	9.3565
-0.5886	0.5605	9.8548
-0.7310	1.5146	9.7070
-0.5085	-0.0485	9.7555
0.0933	-0.1854	9.7298
-0.0419	1.6307	9.6466
-0.6730	-0.3170	9.8315
0.0227	0.1023	9.8422
-0.8572	1.9310	9.0915
-0.8375	-0.1663	9.8548
-0.3009	0.3745	9.2584
-0.9984	1.5942	8.7948
-0.5617	-0.5145	10.0408
-0.5103	1.0092	9.3475
-0.7968	1.8407	8.8839
-0.6233	-0.3535	10.1389
0.0467	0.5276	9.4983
-0.4439	0.8076	8.8767
-0.3266	0.5886	9.9978
-0.3332	0.5886	9.2925
-0.6502	0.6508	9.4815
-0.5180	0.6915	10.0348
-0.2895	0.2291	9.3122
-0.2686	0.8841	8.9060
-0.5647	1.2802	9.5186
-0.5934	-0.3230	9.7046
0.1113	0.8524	9.2051
-0.6640	1.4004	9.1681
-1.0080	-0.1424	9.6293
-0.7101	1.2694	9.1561
-0.8853	1.0151	9.6556
-0.0353	-1.0977	10.1419
-0.2100	0.8596	9.4905
-0.7968	0.9787	9.6532
-0.0371	-0.8363	10.1659
0.0694	1.2329	8.9712
-0.4385	0.3075	9.5796
-0.1980	-0.6305	10.3980
-0.2195	0.9912	9.0484
-0.9751	1.1127	9.4773
-0.6963	0.3278	9.7310
-0.5665	0.6831	8.8612
-0.6179	0.9326	9.3571
-0.4600	0.9170	9.5910
-0.6084	0.2512	9.5431
-0.3703	0.8620	9.6646
-0.5785	0.5240	9.8769
-0.5192	0.1184	9.4091
-0.5803	1.9549	9.3589
-0.4624	0.4570	9.9493
0.1322	-0.3823	10.2155
-0.1131	1.9412	9.4217
-1.0277	0.6520	9.7728
-0.8016	0.6556	10.0079
-0.8177	1.9711	9.3828
-0.8985	-0.1926	10.1318
-0.3033	0.1035	9.6508
-0.8865	1.6349	8.8067
-0.6024	-0.0951	10.3351
-0.2500	0.3494	10.0630
-0.5384	1.2730	8.9001
-0.5785	0.3924	9.8380
-0.3212	0.3170	9.9397
-0.2004	0.5970	9.3996
-0.3308	0.8518	9.7812
-0.3655	0.1729	9.4660
-0.6239	0.6688	9.7399
-0.6790	1.5176	9.4253
-0.4253	-0.0885	9.4773
-0.0610	0.2016	8.9066
-0.7017	1.4279	9.2494
-0.8453	-0.5809	9.7806
-0.1149	0.7023	9.5060
-0.6664	1.5105	9.1573
-0.9697	-0.5252	10.2807
-0.5204	0.9697	9.1890
-0.6461	0.9368	9.4103
-0.0126	-0.5629	10.2251
-0.0676	0.9601	9.0406
-0.7687	0.8794	9.4582
-0.1890	-0.0556	10.1587
-0.1860	0.9224	8.9814
-0.8213	0.8710	9.6951
-0.7131	0.2279	9.8267
-0.2447	0.5593	9.2620
-0.6185	1.1838	9.4767
-0.7944	0.6383	9.6855
-0.3775	-0.2357	9.5611
-0.3505	1.4482	9.4707
-0.3488	0.6778	9.7938
-0.6245	-0.2674	9.6538
-0.8070	1.7306	9.1704
-0.5797	0.7184	9.8410
0.1513	-0.3697	10.1838
-0.4792	1.8712	8.9832
-0.8351	0.4152	9.9032
-0.2315	0.0491	10.1898
-0.3601	1.8933	9.0394
-1.2879	0.3368	9.6335
-0.6000	0.6161	9.8697
-0.2495	0.9936	8.9407
-0.3164	0.2142	10.2879
0.0084	0.5420	9.3302
-0.1029	0.8441	9.1112
-0.2267	0.5055	10.0468
-0.0467	0.4810	9.1423
-0.4630	0.8094	9.4767
-0.6090	1.0026	9.5647
-0.3075	-0.3087	9.9020
-0.0102	0.5127	9.6646
-0.8919	1.8855	9.4737
-0.9446	-0.2124	9.8919
-0.3248	1.0911	9.2608
-0.6891	1.8598	9.1316
-0.4965	-0.3852	9.9308
-0.1765	0.6227	9.4121
-0.5910	1.0833	9.3649
-0.2028	-0.4839	10.3740
-0.6688	1.6151	9.1112
-0.8064	0.7531	9.3810
-0.2584	-0.4343	10.4195
-0.1729	1.1222	9.1525
-0.5246	0.3631	9.5964
-0.2495	-0.4510	10.2197
-0.4104	0.2794	8.9892
-0.6419	0.6407	9.8350
-0.4516	0.6030	9.9888
-0.4510	0.0742	9.2542
-0.5904	0.9679	9.8010
-0.3655	0.6574	9.6891
-0.3200	0.3494	9.5150
-0.3434	1.1581	9.2787
-0.5204	0.1035	10.1575
-0.3069	-0.0449	9.6795
-0.6024	2.0794	9.3553
-0.8494	-0.1346	10.4769
-0.2674	-0.2632	9.8889
-0.9793	1.9418	9.2907
-1.1725	-0.0790	10.2239
-0.8847	0.8590	9.5575
-0.9757	1.3011	8.8534
-1.0624	-0.0144	9.8871
-0.7729	1.3866	8.8546
-0.7184	1.2048	9.3110
-0.6718	0.0969	10.0654
-0.4056	1.4955	8.9437
-0.7669	1.5033	9.2841
-0.5444	0.2076	9.9966
0.1394	0.4337	8.9563
-0.4487	0.9416	9.4462
-0.6987	0.6437	10.0935
-0.8973	0.3601	9.7956
-0.7860	1.2149	9.4456
-0.4235	1.0409	9.8590
-0.6556	0.3015	9.5126
-0.7143	1.3777	9.5449
-0.5043	0.6658	9.8087
-0.0239	-0.2847	10.0534
-0.6072	1.6104	9.0945
-1.0283	0.3105	9.6538
-0.5121	0.3296	9.5635
-0.6784	2.2510	9.0771
-1.0074	-0.0431	10.2017
-0.3583	0.2800	9.5988
-0.5240	1.4183	9.1184
-0.5976	-0.4014	10.5332
-0.4469	0.6598	9.0682
-0.7699	1.0313	9.2703
-0.4606	-0.1400	10.3387
-0.2082	0.7382	8.8941
-0.7507	0.7394	9.5347
-0.5312	0.0173	10.1437
-0.4493	0.7950	9.2243
-0.8590	0.9948	9.0807
-0.7388	0.6574	9.6699
-0.5174	-0.0084	8.8438
-0.1926	0.8315	9.7686
-0.1478	0.8016	10.1419
-0.0616	-0.8800	9.3948
-0.1651	1.0235	9.5760
-0.1759	0.8064	9.8285
-0.4104	0.1029	9.5599
-0.6604	1.1629	9.0353
-0.4427	-0.1011	10.0677
0.2219	0.5043	9.6311
-0.5312	1.6612	9.0436
-0.8518	-0.6712	10.0947
-0.6754	0.4750	9.3242
-0.6837	1.9812	9.0951
-1.0798	-0.4702	10.2813
-0.4594	0.4600	9.4319
-0.6006	1.0833	9.3050
-0.4893	-0.1490	10.5595
-0.5025	0.9344	8.9868
-0.4678	0.5707	10.0498
-0.3793	0.2315	10.0761
-0.4181	1.4046	9.2632
-0.8118	0.5809	9.7716
-0.2698	0.3069	10.1359
-0.1585	1.0355	9.3643
-0.6066	0.9517	9.6089
-0.6652	0.4355	9.6329
-0.5683	0.2967	9.4241
-0.5815	1.4405	9.4019
-0.6060	0.4522	9.5808
-0.4732	-0.4702	9.9613
-0.2512	1.3280	9.3314
-0.3410	0.1866	9.8763
-0.3882	0.4588	9.4606
-0.6221	1.3783	9.2697
-0.4540	-0.0473	10.0408
-0.0820	1.1844	9.1788
-1.0014	0.9320	9.0562
-0.6730	-0.8841	10.0983
-0.2608	1.5631	8.8462
-0.6114	1.5452	9.6717
-0.2686	-0.4750	10.2227
-0.3003	1.3059	8.6991
-0.6676	1.0379	9.5922
-0.7166	0.1029	9.9744
0.0114	0.9912	8.9419
-0.5773	0.2626	9.9906
-0.2477	0.5683	9.6137
-0.2913	0.8812	9.2470
-0.3529	0.4409	10.0372
-0.4893	1.1366	9.4265
-0.6311	0.9739	9.5808
-0.5234	0.5832	10.1700
-0.3398	0.3763	9.4737
-0.0987	0.5922	9.8129
-0.2973	0.6951	9.9200
-0.5826	-0.3063	9.7956
-0.1938	1.0391	9.3421
-0.3242	1.4764	9.4731
-0.3960	-0.5815	9.8494
-0.4169	1.3561	9.2697
-0.2692	0.8704	9.7591
-0.1184	-0.2967	10.1138
-0.0562	1.1533	9.3996
-0.6473	0.0682	10.1324
-0.1860	0.1819	10.4446
-0.3996	1.5386	9.2081
-0.8500	-0.5073	10.6366
-0.3039	0.5258	9.7046
-0.3326	1.0289	9.1842
-0.6419	-0.4355	10.6677
-0.5378	0.7292	9.4043
-0.9063	1.0971	9.3684
-0.5426	0.0323	10.0319
-0.1424	0.3416	9.2674
-0.4552	0.1729	9.6430
-0.2453	0.1352	9.6993
-0.2255	0.5186	9.1178
-0.5581	0.4433	9.8303
-0.2985	0.4612	9.5802
-0.0538	0.3488	9.1118
-0.2632	0.8542	9.4737
-0.1926	0.0030	9.9595
0.0317	-0.1304	9.7429
-0.1621	1.3848	9.3535
-0.3613	-0.3075	9.7818
0.4211	0.1364	9.1435
0.0628	1.3579	9.1082
-0.4863	-0.4516	10.0462
-0.3739	0.3452	9.6000
-0.4187	0.7501	9.4510
-0.4552	-0.3284	10.4685
-0.0778	0.9482	8.9910
-0.0861	0.2112	10.0073
-0.2225	-0.4092	10.0917
-0.1525	1.5577	8.9970
-0.9601	0.1280	10.0271
-0.5749	-0.0221	10.1162
-0.5689	1.5045	8.9557
-0.7836	0.0634	10.4309
-0.4217	0.2650	10.1144
-0.5521	1.0774	8.9952
-0.4606	0.4833	10.3525
-0.4349	0.5910	9.1633
-0.4421	0.8704	9.4420
-0.4744	0.6598	10.1688
-0.4504	0.2489	8.8121
-0.3876	0.3523	10.2526
-0.1382	0.6814	9.5976
-0.3398	0.1496	9.6275
-0.5569	0.5683	9.6089
-0.4798	0.4798	9.5270
-0.2728	0.2351	9.0203
0.0808	0.9260	9.0454
-0.1825	-0.0987	9.5599
0.0461	0.0096	9.5575
-0.1448	1.6469	8.5507
-0.4355	-0.0449	9.6155
0.1095	0.0610	9.3792
-0.4714	1.6977	9.1782
-0.5384	-0.3170	10.2861
-0.0090	0.4624	9.3086
-0.4098	0.9541	9.9463
-0.4702	-0.3380	10.2921
-0.1364	1.3178	8.7780
-0.7053	0.9583	9.8117
-0.5844	0.1609	9.9744
-0.1741	1.5619	8.7966
-0.8829	0.3936	9.8111
-0.7083	0.3368	9.5455
-0.3888	1.1838	8.9659
-0.6885	0.5001	10.1180
-0.8560	0.5838	9.2452
-0.7633	1.1509	9.2871
-0.8411	0.8596	10.0917
-0.6562	0.5444	9.2811
-0.7824	0.6508	9.7669
-0.3511	0.8752	9.8446
-0.6359	0.4217	9.5671
-0.7262	0.7711	9.6017
-0.6443	1.0146	9.6909
-0.9416	0.3398	9.8584
-0.6485	1.0014	9.4115
-0.6024	0.3320	10.1605
-0.2351	0.2225	9.8368
-0.4433	1.1677	9.3744
-0.7274	0.1705	10.1814
-0.4522	0.7884	9.5778
-0.8847	1.8305	9.1100
-0.8243	-0.1220	10.1485
-0.5019	1.4094	8.9730
-0.6311	1.0905	9.1028
-0.6012	0.0263	9.9290
-0.1836	1.2209	8.4634
-0.5671	0.5312	9.7866
-0.8841	0.9410	9.5330
-0.7023	1.5912	8.5704
-0.9182	0.3386	10.0612
-0.8357	1.0917	9.2183
-0.5168	1.1031	8.8923
-0.1298	-0.1920	10.2532
0.1280	0.5599	9.4271
-0.3721	0.6927	9.3936
-0.3511	0.0365	10.1958
0.0048	0.3290	9.1824
-0.2351	0.7884	9.8560
-0.3176	1.0600	9.4366
-0.2776	0.0377	9.1752
-0.2249	1.0534	9.8057
-0.4086	1.3334	9.7513
-0.1196	0.0837	9.4749
-0.1490	1.0463	9.7076
-0.2943	0.5976	9.6969
-0.4193	0.8979	9.4654
-0.5587	1.2676	9.5587
-1.0486	0.6096	9.9732
-0.4217	1.6451	8.9934
-1.1503	1.4800	9.6275
-1.0941	0.4881	9.7160
-0.9727	2.2636	8.7242
-1.0959	0.7884	9.7740
-0.9290	0.5856	9.9433
-0.9870	1.9316	9.0592
-1.4512	0.1890	10.2741
-0.8776	0.6790	9.5527
-0.6825	1.5158	9.2201
-0.6981	0.0054	10.5882
-0.6000	1.3998	9.1005
-0.8979	0.5707	10.3782
-0.6831	0.6090	9.8566
-0.5689	1.5906	8.5890
-0.7501	-0.1687	10.6265
-0.7149	0.4175	9.9355
-0.4140	1.0522	9.3415
-0.7280	0.3745	10.4249
-0.4989	0.5617	9.5766
-0.7214	1.1497	9.4277
-0.8656	0.8841	9.9990
-0.5318	0.2590	9.5994
-0.3386	0.6132	9.8141
-0.5109	0.8112	9.9014
-0.1777	-0.1472	9.5581
-0.2794	0.8698	9.5796
-0.6377	0.3655	9.4869
-0.5886	0.3978	9.5288
-0.7143	0.7908	9.5455
-0.8572	-0.0353	9.8219
-0.4786	0.7460	9.0646
-0.7968	0.6371	9.7956
-0.9111	-0.0245	10.0564
-0.5677	1.4901	8.6057
-0.9182	0.4498	9.8105
-0.5701	0.1310	9.3146
-0.7065	1.7097	8.3473
-0.4708	-0.2363	10.1330
-0.1137	0.0760	9.7130
-0.2746	1.3627	8.8546
-0.7585	-0.2345	9.9457
-0.1615	0.7244	9.4396
-0.2835	0.5641	9.7836
-0.1292	-0.0676	9.8865
-0.3434	1.3466	8.6793
-0.8411	0.2746	9.9649
-0.2614	0.6562	9.1005
-0.3715	1.0696	9.1046
0.0066	-0.1029	10.1682
0.1501	0.5665	9.0388
-0.2788	0.5593	9.6352
-0.1172	0.0239	10.5505
0.1938	0.3763	9.4498
-0.4594	0.5838	9.8057
-0.3757	0.5605	9.8327
-0.4110	0.7454	9.4875
-0.3673	0.8321	9.5850
-0.6939	0.0670	9.5700
-0.2435	0.3081	9.7657
-0.1711	0.7047	9.7334
-0.2339	-0.3320	9.9062
-0.0287	0.2423	9.8548
-0.2620	0.3482	10.0013
-0.4804	0.0449	10.2215
-0.5198	0.9619	9.3810
-0.7436	0.0473	10.6091
-0.6467	0.3266	9.6556
-0.8417	1.2329	9.0640
-0.8471	-0.2931	10.5708
-0.3494	1.0965	9.0376
-0.5330	0.9057	9.5234
-0.5934	-0.6718	10.2257
-0.0407	1.4046	8.5716
-0.2363	0.1657	9.9643
-0.5587	-0.2692	9.9936
-0.2566	1.4656	9.0969
-0.5743	0.3069	10.6552
-0.6209	0.6682	9.2937
-0.2566	1.1396	9.6903
-0.3751	0.3553	10.0648
-0.4433	1.0786	8.6255
-0.5037	0.4498	10.2077
-0.4433	0.0820	9.7136
-0.2309	0.9918	8.8510
-0.6993	-0.2040	10.1425
-0.1053	0.2040	9.5001
0.0132	0.6150	9.3667
-0.5653	-0.0072	10.0677
-0.1860	0.2321	9.4474
-0.4863	0.6987	9.7962
-0.3661	0.2495	9.5066
-0.3111	0.0377	9.4378
-0.4415	0.6461	9.7130
-0.4995	0.5647	9.3248
-0.4690	-0.0832	9.6616
-0.5145	1.0720	9.4857
-0.2847	-0.3081	9.5539
0.0108	-0.0042	10.0929
-0.4917	0.7196	10.2257
-0.4247	-0.2106	10.2562
-0.3003	0.9523	9.6412
-0.5838	0.0790	10.5170
-0.0437	0.0826	10.0121
-0.9087	1.8060	8.6315
-0.6473	-0.3428	10.3004
-0.2094	0.5880	9.2123
-0.9398	1.4722	8.6309
-0.6598	-0.2142	9.9810
-0.1549	1.0546	8.6135
0.0598	0.6682	9.2853
-0.4845	-0.1077	9.8081
-0.0951	1.3190	8.4993
-0.2554	0.0215	10.7042
-0.5079	0.1280	9.1980
0.1352	0.8177	9.4773
-0.0024	-0.1597	10.2077
-0.3721	0.7609	9.0185
0.1394	0.3523	10.5661
-0.4534	0.1956	10.0002
-0.6048	1.0151	9.2506
-0.6221	0.7783	10.2131
-0.9936	0.8991	9.4612
-0.5013	1.2167	9.4175
-0.9978	0.8285	9.3816
-0.9218	0.6233	9.7208
-0.3302	0.6933	9.4079
-0.8590	0.9135	9.0598
-0.6353	-0.2142	9.9026
-0.0550	0.5964	9.3439
-0.4247	0.5509	9.0131
-0.5486	0.0197	9.9062
-0.5791	1.1844	8.7726
-0.4415	0.3135	9.7633
-0.1161	-0.0191	9.9786
-0.3924	1.2161	9.5383
-0.2387	-0.4726	10.2855
-0.2447	0.5874	8.9850
-0.0891	0.6891	9.6699
-0.1460	-0.6820	10.5230
-0.2285	1.2796	9.0089
-0.4863	-0.0185	10.5678
-0.0233	-0.0054	10.2023
0.1190	1.2167	9.2596
-0.6766	-0.0395	10.8305
-0.4092	0.7160	9.7100
-0.1238	0.6383	9.9684
-0.5815	-0.3290	10.4494
-0.2877	0.9027	9.1986
-0.3775	0.9069	10.3908
-1.0917	0.1866	9.8578
-0.3039	1.0229	9.2135
-0.1651	0.3643	10.1587
-0.9230	0.6299	9.1340
-0.7083	0.8818	9.5730
-0.4654	0.4104	9.9625
-0.4750	0.5306	8.8229
-0.4672	0.3757	9.3284
-0.3697	0.3793	9.4678
-0.3314	0.4498	8.9605
-0.5767	0.6885	9.1920
-0.6772	0.6030	9.6717
-0.1077	0.2524	9.2763
-0.4606	1.2161	8.6512
-0.3930	-0.2758	9.6622
0.1238	0.7310	9.5126
-0.3631	0.9278	8.8277
-0.1807	-0.4570	9.6909
-0.1358	1.3238	8.8504
-0.1890	0.2237	9.1633
0.0269	-0.2841	9.4211
-0.1747	1.0187	8.6057
-0.2255	-0.0377	9.8081
-0.5306	0.6646	8.8037
-0.5300	1.2299	9.1836
-0.3416	-0.3434	10.3058
-0.4857	1.3681	8.5944
-0.6221	0.1585	10.1234
-0.6197	0.3248	9.7968
-0.7603	1.6421	8.6057
-1.2802	0.3817	10.3728
-0.7454	0.9129	9.3774
-0.5826	0.9559	9.3667
-0.8136	0.1161	10.3896
-0.5503	1.1073	8.7649
-0.4534	1.0457	9.4157
-0.8142	-0.3613	10.1700
-0.3458	1.0379	9.5886
-0.2435	0.3075	10.4847
-0.7848	0.2788	9.5036
-0.2656	0.6048	9.8602
-0.6808	0.8112	10.3561
-0.6335	0.4804	8.8827
-0.2919	0.3577	9.8769
0.0126	0.6245	9.7052
-0.3021	0.1190	9.2644
-0.3314	0.7143	9.5940
-0.5868	0.2512	9.7698
-0.1669	0.0724	9.8691
-0.6987	0.6885	9.3804
-0.4714	-0.0712	10.4925
-0.1478	0.6431	9.5694
-0.7860	0.2506	9.4797
-0.3464	-0.8207	10.1910
0.0024	1.0522	9.6263
-0.6784	-0.0957	9.5060
-0.2303	-0.3823	10.1431
0.1131	1.1133	8.7086
-0.8405	0.2668	10.1054
0.1166	0.3075	9.3092
-0.3027	0.8650	9.9403
-0.9505	-0.0317	10.1557
-0.3541	0.7627	9.2309
-0.0514	0.4588	10.3375
-0.0748	-0.0185	9.3696
-0.4851	1.3771	9.0801
-0.6999	0.0455	10.5589
0.1872	1.0002	8.7738
-0.4845	0.6299	9.8422
-0.8076	0.3703	10.0217
-0.2536	1.0319	9.0771
-0.5348	0.5049	9.7836
-0.7872	0.3972	9.4319
-0.0329	1.4064	9.0018
-0.6849	0.0993	9.8476
-0.4086	0.3039	9.4486
-0.1418	1.1162	10.4979
-1.1850	0.8052	9.0353
-0.6114	0.3404	9.1740
-0.1406	1.3166	9.6209
-0.7364	0.5719	9.0556
-0.5025	0.5695	9.8578
-0.6191	0.7992	10.2891
-1.0361	0.7089	9.3015
-0.6018	0.7262	9.6616
-0.5970	0.8381	9.2297
-0.1346	-0.1059	9.4636
-0.6233	1.1210	9.3481
-0.9147	0.6622	10.2340
-0.7956	0.8512	10.0845
-1.0169	1.4680	8.7900
-1.1647	0.9063	9.7740
-0.2243	1.5170	9.4959
-1.2437	1.0887	9.0795
-0.9625	-0.2973	10.3447
-0.6144	1.3926	9.0945
-1.0104	0.2542	10.2987
-0.2542	-0.2949	10.0390
0.2566	1.1916	8.7978
-0.5791	-0.1214	9.7902
-0.7424	0.7753	8.8408
-0.6389	1.3131	9.9852
-0.7238	0.3135	9.8123
-0.6287	1.6157	9.0047
-0.6694	0.8261	10.3489
-0.2716	0.4487	9.2452
-0.3547	1.4471	9.4259
-0.6963	0.1232	10.7491
-0.2674	0.9499	8.4915
-0.1478	0.4038	9.9948
0.1059	-0.3936	9.9828
0.2435	1.0151	8.9138
-0.4181	-0.0156	9.8494
-0.6957	0.5031	9.7878
-0.4953	1.3304	9.3128
-1.0636	0.3320	10.2999
-0.4086	0.3344	9.1687
0.0562	0.8494	10.5469
-0.5713	-0.2692	9.5623
-0.3619	0.5647	9.6012
-0.2321	0.7149	9.8985
-0.5186	-0.0341	9.5377
-0.6185	0.1621	9.8745
-0.2351	0.5432	10.1748
-0.2207	-0.0263	9.6233
-0.5007	0.7567	9.5312
-0.7358	0.8488	9.5599
-0.3846	0.3811	9.5240
-0.6191	1.2209	9.6496
-0.3511	0.2100	10.7814
-0.1424	0.3057	9.8392
-0.3894	0.5300	9.7561
-0.3619	-0.2859	10.6079
0.0855	0.3960	8.9066
-0.8136	0.3912	9.5001
-0.7442	-0.0616	9.9690
-0.7143	1.7653	8.8402
-0.4451	-0.4295	9.7800
-0.2500	-0.2076	9.6999
0.0826	1.0319	9.1591
-0.4875	-0.3374	9.8315
-0.3817	1.4471	9.1513
-0.5940	1.0498	10.2299
-0.7950	0.7639	9.5545
-0.5599	1.4189	8.9318
-0.2913	0.3290	10.3884
0.1166	0.0975	9.3128
-0.1675	0.7238	9.6107
-0.4307	-0.2943	10.8424
-0.2716	1.0804	8.7308
-0.4714	0.4104	10.1180
-0.4062	0.0861	9.6454
0.5258	1.2676	8.4987
-0.8387	0.4283	10.6917
-0.8752	0.6365	9.0640
0.3063	1.0660	10.0319
-0.4654	0.0012	9.9320
-0.1986	0.1836	8.9342
0.2148	0.7938	9.9487
-0.7998	0.1651	8.9904
-0.1107	0.5928	9.1441
0.4893	0.7160	9.9667
-1.0594	0.6514	8.6805
-0.4421	0.7238	9.5336
-0.5013	1.0235	9.8727
-0.9870	0.5270	9.3314
-0.4768	0.4959	9.8195
-0.1466	0.3332	9.7603
0.0814	0.2788	9.7011
-0.3661	0.8159	9.4827
-0.2016	-0.1723	10.7312
-0.5019	0.8309	9.2057
-1.2048	1.4961	9.3571
-1.3089	0.4822	10.2311
-0.5593	1.7456	8.7750
-0.8710	0.2919	10.1545
-0.7717	0.1083	9.5174
0.2560	0.7968	9.0628
-0.4869	-0.5396	9.7495
-0.3141	0.7848	9.1794
-0.2907	1.1994	10.0043
-1.0259	-0.3613	9.7274
-1.3292	1.9633	8.7906
-0.7501	0.5785	10.0307
-0.6598	-0.1238	9.3403
-0.1932	0.7986	9.2644
0.0897	-0.6239	10.7294
-0.3601	0.2076	8.8522
-0.0700	0.2829	10.1898
-0.0778	-0.3344	9.9673
-0.7388	1.7426	7.9597
-1.1139	0.7346	10.0552
-0.8536	0.7065	9.2901
-0.6796	1.7342	8.5830
-0.8704	0.3224	9.7716
-0.3685	0.6592	8.2193
-0.3547	1.0708	9.3379
-0.8812	0.1519	9.8506
0.0000	0.9793	8.7852
-0.0969	1.0750	9.8440
-1.0666	0.4756	9.2482
0.1358	1.0020	9.5090
0.2925	0.4283	10.0947
-0.4116	-0.2483	9.6394
-0.0191	0.5145	9.8841
-0.0598	0.2417	9.9242
-0.2070	-0.1232	9.9637
0.0497	0.7681	9.8871
0.0945	-0.0419	10.0480
-0.3242	0.5491	9.9643
-0.3488	1.0044	9.8123
-0.1035	-0.4062	10.4279
-0.1735	0.8656	9.3583
0.1101	0.0000	10.3435
0.0945	-0.0335	10.6325
-0.3733	1.2640	9.2207
-0.4223	0.0138	10.6660
0.3565	0.0556	10.1605
-0.5767	0.6915	9.8195
-0.5486	-0.3182	10.5020
0.1047	0.8973	9.9379
-0.6598	-0.2100	10.5373
-0.6562	-0.0694	9.9421
0.4379	0.9164	9.7884
-0.4475	-0.7352	11.0991
-0.5539	0.4427	9.6544
0.2512	1.2144	9.9894
-0.5563	-0.8004	9.9003
-0.6239	1.3436	8.8588
-0.5683	0.2734	10.1192
-0.9344	0.1137	8.6596
-0.5886	1.4046	9.1920
-0.6652	-0.1364	9.7812
-0.8423	1.0008	7.7635
-0.8441	1.3148	10.2095
-0.5832	-0.0467	9.3427
-0.9009	1.5529	8.2301
-1.4817	1.0439	10.1671
-1.2006	1.2006	9.5186
-1.2969	1.6116	9.5288
-1.0816	0.3631	10.1760
0.1968	0.4570	9.4636
-0.5617	0.1854	10.4632
-0.4044	-0.0347	9.8931
0.5438	0.1938	9.1274
0.1268	-0.2560	9.9930
-0.4642	0.0000	9.4570
0.5868	0.5444	9.5946
-0.2752	-0.1161	9.2572
-0.4271	0.0144	9.5868
-0.0150	0.8375	9.8105
-0.6090	0.2052	9.2099
-0.6323	0.8231	9.8010
-0.6221	1.5027	10.2041
-1.3561	0.0167	9.9003
-0.5850	1.3448	9.8285
-0.2429	0.5749	10.5098
-0.4295	-0.4881	10.3704
-0.3535	0.9769	9.2315
0.3188	-0.2740	9.6825
-0.1669	0.2931	9.1399
-0.8680	1.4136	8.8995
-0.8405	-0.2142	9.6783
-0.6060	1.3501	8.4741
-0.4672	0.4732	9.9050
-0.1448	-0.3763	10.5906
-0.4403	0.9966	9.7603
-0.5958	-0.4002	10.3710
0.4881	0.6090	9.5168
0.7155	0.0945	9.8057
0.0042	-0.2901	10.6648
0.1777	0.9105	8.1038
0.1866	-0.2668	9.9900
-0.2309	-0.0885	9.3852
-0.1304	1.6588	8.4879
-0.7466	0.2895	10.0624
-0.8692	0.7113	8.6518
-0.4510	1.3448	10.3202
-1.0469	0.0443	9.9786
-0.2614	1.1282	9.0119
0.0120	0.4032	10.7000
-0.4684	0.1735	9.2087
0.1172	0.9685	9.6723
0.1926	-0.1472	9.6083
0.1017	-0.0670	8.5788
0.0485	0.6191	9.6089
-0.4367	0.9912	8.9198
-0.6185	0.7268	8.7924
-0.6963	1.0594	10.2454
-0.6269	0.6114	9.4815
-0.5408	0.5898	10.0265
-0.4247	0.5210	10.0767
-0.0873	-0.2489	9.9385
-0.1926	0.7777	9.9984
-0.0574	0.3978	9.9080
0.2800	0.5635	9.5318
-0.5677	0.4672	9.3912
-0.5934	0.0556	10.1180
-0.5635	1.5272	8.9826
-0.8680	0.9649	9.4827
-1.0570	0.4235	10.3854
-0.8794	1.7563	9.0658
-0.6395	-0.1113	10.4949
0.2536	0.3452	9.7513
0.1699	0.7711	9.7088
-0.1376	-1.0774	10.2939
0.3523	0.9721	8.7356
0.2638	0.6317	9.5718
-0.1161	-0.3015	9.4343
-0.8488	1.1150	9.2500
-1.1557	0.4445	9.7196
-0.7830	1.2634	8.6512
-0.5282	1.3651	10.2652
-0.8794	0.3248	10.0319
-0.3990	1.2072	8.5860
-0.0843	0.2524	10.1198
-0.0796	0.4205	8.7583
-0.0628	1.0510	9.0855
-0.2560	0.2955	10.4051
-0.4104	1.1545	8.5082
-0.4935	0.7585	10.3387
-0.6102	-0.0347	9.6538
0.1992	0.5360	9.0496
0.0096	0.0072	10.4189
-0.2746	0.7011	8.7547
-0.7047	1.3872	9.8177
-0.7388	0.4116	9.6550
-0.0622	0.8584	8.8008
-0.1089	0.8106	9.9690
-0.7238	-0.1125	9.1782
-0.4367	1.3699	9.6424
-1.0253	1.1605	9.5300
-0.8829	0.0909	9.1812
-0.2076	0.9589	9.7459
-0.2806	-0.1884	9.3308
0.0156	-0.1400	9.5186
-0.7836	1.6708	10.2879
-1.6672	0.2889	9.6173
-0.6957	1.0367	9.4845
-0.1872	0.7968	9.5647
-0.2746	0.3972	8.5399
-0.8148	2.0740	8.8349
-0.8183	0.3272	10.5236
-0.6108	0.4899	9.6424
-0.6245	1.0947	10.1054
-1.1844	0.4612	10.2017
-0.8285	1.4596	8.9342
-0.5013	-0.0957	10.4111
-0.2578	0.5151	8.8773
-0.1914	0.7753	8.7541
-0.4995	-0.1777	10.4105
-0.0909	0.6820	8.8845
-0.4074	-0.2614	10.3363
-0.6610	0.0072	9.7531
-0.3290	1.0869	9.8051
-0.2004	-0.5330	11.2049
-0.2345	0.7029	8.9001
-0.7968	1.1970	10.7174
-1.5595	0.1131	9.5754
-0.4678	1.1031	8.6386
-0.9147	0.5121	10.0660
-0.8752	0.0568	8.5011
-0.1113	1.0301	9.8237
-0.1956	-0.2620	8.9162
-0.0957	0.3434	8.7942
0.0455	0.5264	10.7880
-0.5545	-0.2530	9.2267
-0.2465	0.8231	9.4618
-0.2100	0.4558	10.3280
-0.7609	-0.0209	9.7423
-0.7663	1.3513	10.2227
-0.8411	0.3685	9.7381
-1.0911	0.7675	9.8745
-0.7352	0.7998	9.5874
-0.4481	0.1448	9.0125
-0.0837	1.0223	9.0664
-0.2800	0.5234	9.7758
0.0485	0.3823	8.3042
-0.1561	1.0307	8.9084
-0.1591	-0.4672	10.1258
0.1370	0.7125	8.5346
0.2309	-0.0395	10.0325
0.3200	-0.4887	10.5451
-0.0138	0.4152	9.5491
-0.2542	-0.6742	10.6642
-0.0604	0.7424	9.5090
-0.6114	0.4594	10.2496
-1.1683	0.3667	9.5407
-0.0622	1.2108	8.3509
-1.1533	0.6700	10.4626
-1.0576	0.8818	7.8143
0.4822	0.7681	9.4008
-0.5145	-0.2076	9.8333
-0.5031	1.2849	7.8574
0.2064	0.6556	9.8931
0.0760	-0.5749	8.5615
-0.1986	0.9960	9.8440
-0.4600	0.3446	10.2490
-0.1729	-0.0652	8.9210
-0.1801	0.9960	10.3172
-1.1970	0.5844	9.8045
-0.9218	0.6933	9.8213
-0.8602	1.0821	10.0049
-0.9398	0.4923	8.8594
-0.7842	1.5697	9.4516
-0.2710	0.4618	9.4582
-0.2853	0.3649	8.1391
-0.8375	1.4901	8.8875
-0.3248	0.0491	9.3242
-0.1591	1.0080	8.6901
-0.1149	0.7771	9.3792
-0.0024	0.0652	9.3038
0.7298	0.5234	9.2201
0.0078	-0.2806	10.5900
-0.3302	1.0642	8.8749
0.0443	0.2895	10.0707
-0.3344	-0.1244	10.5846
-0.7232	0.9691	9.6376
-0.8889	0.2333	10.6295
-0.8357	1.0169	9.1567
-1.1803	1.4734	9.8829
-1.9699	0.7268	9.6227
-0.7842	1.2413	8.9832
-1.3789	0.6538	10.8083
-1.7306	0.8309	8.4095
-0.8058	1.4859	9.8051
-1.8574	0.6694	9.9326
-1.4931	1.0989	8.5029
-1.1874	1.8042	9.5306
-1.3005	0.5462	8.2337
-0.6855	1.0367	9.5258
-0.9236	1.1019	8.6817
-0.8997	0.7830	7.9226
-0.5055	1.4213	9.0807
-0.4941	0.5605	8.0141
-0.2596	0.4762	8.1122
0.4582	0.3583	8.9587
0.1956	0.3153	8.0183
-0.1854	1.2963	7.6803
0.6526	-0.3547	9.1770
-0.2381	0.8357	7.7952
-0.3858	1.3214	8.3916
0.6526	0.0562	8.6189
-0.1202	1.2048	8.3485
-0.4289	0.6568	9.1274
0.2955	1.2550	7.1683
-0.1908	0.9703	8.7068
-0.5587	0.7029	8.5872
-0.3685	1.6373	7.2598
-0.6215	0.5019	9.2763
-1.0672	1.2138	7.7557
-1.3454	2.0010	8.5543
-1.4064	0.9356	8.8337
-1.0756	1.4159	8.7320
-1.6558	1.2891	10.1665
-1.6253	0.9446	8.2456
-0.5617	0.9942	10.3304
-1.3071	0.1172	9.9714
-0.9374	0.7836	9.5485
-0.4379	0.6646	11.1493
0.1382	-0.4445	8.8779
0.0832	0.5432	9.9433
0.0736	0.0257	9.5120
0.2393	-0.2919	8.9389
0.0329	0.9864	9.4337
0.0281	0.4744	8.0333
0.0209	0.6831	9.3122
-0.7406	0.8429	9.3302
-1.5822	1.2628	8.5657
-1.8730	1.7336	9.3673
-1.3561	0.5844	10.1312
-1.7156	1.4249	10.2311
-0.9278	1.0110	10.1671
-0.1699	-0.0712	9.7351
0.2704	-0.1101	10.3363
0.2931	-0.2213	10.3633
-0.1035	0.9356	8.1038
-0.3123	0.2189	9.4534
-0.6879	0.8447	8.8630
-1.1569	1.5505	8.7254
-1.2257	0.7944	10.3866
-1.1300	1.0020	9.1525
-0.5168	0.2704	10.6061
-0.6275	0.4319	8.6961
0.9936	0.0963	9.7525
0.3541	-0.0981	10.0486
-0.2237	0.6742	7.6139
-0.4253	1.3460	9.9104
-1.1545	0.7178	7.8670
-1.1910	1.5380	9.9607
-1.2221	0.6335	10.0127
-0.1980	0.0317	9.3541
0.3194	0.2076	10.8807
0.3649	-0.6975	8.2020
0.3344	0.2602	9.5712
-0.5456	0.9805	9.1411
-1.0540	0.4152	8.4269
-1.5721	1.9017	10.4949
-1.1294	0.6897	9.2566
-0.4983	1.1228	10.0145
0.2267	0.0485	10.5062
-0.1561	0.3230	8.7385
-0.6407	1.2718	8.9515
-0.4810	0.3577	9.9565
-1.5697	1.0582	9.2285
-0.9619	0.9099	9.6029
-0.2985	0.1298	9.2560
-0.1011	0.3129	9.4546
-0.3523	0.6114	9.5593
-0.8130	1.0313	7.9758
-0.9362	0.5246	9.5503
-1.5781	1.2987	8.8378
-0.6311	0.9033	9.6119
-0.3021	0.2973	10.3764
0.7149	0.0389	8.3665
0.2776	0.3488	10.3208
-0.7998	0.7807	7.6002
-0.9398	1.4279	9.7178
-1.2897	0.6802	9.5934
-0.7089	0.1490	9.5240
-0.6658	0.8225	10.8275
-0.5587	-0.0335	8.3090
0.4469	0.5910	10.0887
-1.0720	1.0026	8.9198
-1.2957	0.8788	8.5011
-0.7645	1.4925	9.9338
-0.7998	0.2740	8.6452
-0.2148	0.8417	10.0731
0.1322	0.2130	9.8674
0.1884	-0.2058	8.9683
-0.1866	0.6514	9.5832
-0.5605	0.5216	9.1046
-1.0893	1.4261	9.1902
-0.6796	0.7484	10.5343
0.0353	-0.1053	9.4337
-0.1765	0.1448	9.7334
0.5198	0.0724	9.1974
-0.0945	0.6132	8.2863
-1.0086	1.1611	10.1318
-1.7222	1.3735	8.3509
-0.7107	0.3930	10.5666
-0.0293	0.1430	9.7920
-0.0018	0.6455	8.3449
-0.3966	0.9607	9.7495
-0.6455	0.4875	7.8634
-1.1276	0.7178	10.4428
-1.0899	0.4726	8.4502
0.0473	0.4032	9.0484
0.3021	0.5342	9.2039
-0.6221	0.4391	8.0165
-1.1886	1.6804	10.5942
-1.1180	0.5168	8.9114
0.3709	0.3368	10.3980
-0.2925	0.8357	9.3284
-0.4666	0.3410	7.9842
-1.0660	1.7599	9.7968
-0.9852	0.6042	9.1142
-0.4540	0.9428	9.9888
0.0640	0.3751	9.2620
0.0024	-0.3129	8.7044
-0.1472	0.5222	9.7567
-0.5575	0.2100	9.5688
-0.5306	0.8554	9.6496
0.5210	0.1884	10.1730
-0.3697	0.4289	8.9790
-1.0492	1.3113	9.8057
-0.4726	0.3015	9.0161
0.3918	-0.1729	8.8157
0.1053	0.4636	10.4297
-1.6373	1.4142	8.2833
-1.0217	1.0415	10.5762
0.3739	0.0239	8.9234
0.0586	0.4427	8.4215
-1.0666	1.4817	10.0301
-0.8674	0.3147	7.9746
0.2387	0.0634	9.9912
-0.6538	0.4068	8.1056
-1.5882	1.4195	8.6309
-1.2867	1.3651	9.0466
-0.0401	-0.2530	7.9358
-0.5785	1.2957	9.5527
-1.4943	0.9840	6.8949
-0.3230	0.6694	9.1076
-0.2004	0.4086	8.3395
-0.8644	0.7190	8.5639
-0.9464	1.5218	9.7938
-0.2447	0.1484	8.0907
0.3356	0.8261	9.5611
-0.8076	0.6778	8.8014
-0.9577	0.6616	9.8769
-0.0233	0.8243	9.3427
-0.2219	0.3607	8.3060
-0.9745	1.4811	10.0576
-0.5695	0.3254	9.0299
-0.1819	1.1832	8.6883
-0.0963	0.8889	9.8117
-0.7705	0.3511	9.3038
-0.6903	0.9182	9.0490
0.7860	0.3063	9.6843
-0.1567	0.1753	8.3892
-0.7675	1.3113	10.3393
-0.6939	0.4451	8.7397
-0.2477	0.0060	9.1130
-0.3404	0.6048	10.4805
-0.9918	-0.1196	9.4265
-0.0963	0.5019	10.5666
-0.8800	0.4744	7.9764
-1.0804	0.4122	10.0348
-0.4582	0.5294	9.3726
-0.0843	0.1711	8.1009
-0.4917	1.3035	10.1850
-0.7597	-0.2471	8.3036
-0.2339	0.0407	10.5026
-0.7358	0.5468	7.9938
-1.1587	0.9296	9.3906
-0.4606	1.0223	10.3022
0.0401	-0.1789	7.9525
-0.4457	1.1372	10.3088
-0.8818	0.5892	8.6596
0.2016	0.3069	10.1264
-0.1944	0.7286	9.1908
-1.1563	0.6030	9.0047
-0.9087	1.1384	10.1425
-0.1472	-0.2913	9.0161
-0.0855	0.8465	9.6442
-1.1797	1.4548	9.7794
-0.8937	0.4223	8.9036
0.4283	0.0754	9.7220
-0.1412	0.4839	9.3547
-1.1360	1.1569	8.8863
-0.4409	0.5611	9.7956
0.0933	-0.0132	8.6841
-0.4158	0.8375	9.4420
-0.6215	0.9535	9.5485
-0.3260	0.6419	8.4125
-0.2315	0.9314	10.1856
-1.0684	0.6275	8.3814
-0.2800	0.3523	10.4901
-0.2506	0.6790	8.4568
-1.6780	1.3382	8.7499
-1.0187	1.3645	9.8536
-0.3864	-0.2327	7.4069
-0.3176	0.7155	9.8751
-1.4147	0.8506	7.4297
-0.8309	0.6006	8.9168
-0.6006	1.1109	8.6985
-1.3148	0.5779	7.6103
-0.5073	1.3693	9.7944
-0.0784	0.2471	7.1563
-1.1797	1.5039	9.3679
-0.9954	0.7250	8.5956
0.0718	-0.0808	8.6440
-0.6018	1.1707	9.6753
-1.0935	0.7813	8.6267
-0.6275	1.0702	9.8279
-0.5426	0.1914	9.1740
-0.7208	0.9763	9.4061
0.2052	0.2871	9.8111
-0.1280	0.0933	9.0957
-0.8901	1.1336	9.5162
-0.3159	0.4140	9.8596
-0.1801	0.3218	8.7810
-0.4235	1.0193	10.2993
-0.5856	0.7400	8.8127
-0.4457	0.5785	8.6033
-0.7998	1.0780	10.1611
-1.1432	0.2578	8.1595
0.1549	0.9667	10.5206
-0.7878	0.4427	8.2426
-0.4104	0.1657	9.5736
0.0832	0.5222	9.3702
-0.6496	0.2584	8.5573
0.0903	1.0044	10.5810
-0.3470	-0.0311	7.3226
-0.7830	0.9894	9.5539
-0.5019	0.8309	8.2396
-0.2369	0.1974	8.8343
-0.5689	1.2670	10.0366
0.0006	-0.1579	7.9322
0.0975	0.7053	10.0516
-0.7860	0.3709	7.8514
-0.1543	0.1107	9.7076
-0.4744	1.0756	9.1818
-0.8584	0.5103	8.5029
-0.1519	0.6831	9.4803
-0.4427	0.1143	8.1559
-1.0528	1.0295	10.0857
-0.2608	0.6778	9.5078
-0.4116	0.5330	9.4630
-0.9374	1.0475	10.1437
-0.1214	0.2530	8.9599
-0.6526	1.0062	8.8349
-0.5605	0.7753	10.3968
0.2088	0.4163	9.0335
-0.4289	0.9422	9.6610
-0.5779	0.8351	10.4398
-0.1184	-0.3434	8.4077
-0.3380	0.6096	10.6253
-0.5904	-0.1376	8.6051
0.4959	0.0616	10.3974
-0.2871	0.8835	9.1148
-0.1914	0.1178	8.7804
0.3284	0.5157	10.0079
-0.3033	0.2076	8.0093
0.1178	0.3978	10.5284
0.0628	-0.1412	8.3617
-0.5216	0.7077	9.6993
-0.2351	0.4977	8.9515
0.2536	-0.2985	8.4053
-0.6544	1.0959	9.7256
-0.9852	0.2040	8.2151
0.2895	0.3709	10.0307
-0.5982	0.2351	8.8223
-0.5701	0.5186	9.3900
-0.1155	0.6305	8.8037
-0.3996	0.5186	9.3206
-0.4403	0.5468	9.0364
0.4163	0.6993	9.2614
-0.1190	0.8207	9.2476
-0.2345	0.1262	9.2488
-0.3272	1.0349	9.6885
-1.3316	0.6407	8.6578
-0.3440	0.9063	10.6995
-0.4762	0.3093	8.4825
-0.6395	1.0331	9.9122
-0.1065	0.7836	8.8911
-0.4636	0.1854	8.3371
-0.7484	1.3280	9.5575
-0.1005	-0.0867	7.6402
-0.3709	1.3166	10.0881
-1.0762	0.4283	7.4099
-0.6287	0.8345	9.2524
-0.8662	1.2419	8.5405
-0.6712	0.1789	8.3210
-0.4223	1.3280	9.5587
-1.2903	0.2064	8.3336
-0.8052	0.5545	10.5104
-0.7729	0.6544	8.4370
-1.0199	0.8949	9.8398
-1.1025	1.2999	8.6943
-0.5276	0.8363	9.0813
-0.6120	0.3428	10.0450
0.0108	0.4469	8.7708
-0.5677	0.9936	9.7094
-0.9781	0.6197	9.5042
-0.1603	0.3787	9.8524
-0.8997	0.0658	9.2853
-0.2758	0.7238	10.3280
-0.4421	0.3135	8.9419
-0.7860	0.8722	10.6253
-0.2931	0.4660	9.2321
-0.5862	0.3093	10.0695
-0.5151	0.8626	9.8847
0.0150	0.2441	8.9593
0.0191	0.5157	10.5493
0.5055	-0.5079	8.2767
-0.1143	0.5838	10.2675
-0.8638	0.6999	8.0548
0.3159	0.4325	9.5282
-0.1388	0.4582	10.0319
0.3015	-0.6096	8.3910
0.4732	0.4612	9.9708
0.0449	-0.2578	7.7318
0.1041	0.6227	9.7465
-0.3464	0.6712	8.6004
-0.0395	-0.1472	9.2368
-0.5725	1.0038	9.5485
-0.1519	-0.3117	9.0562
-0.2417	0.4391	9.9780
0.0006	0.2195	8.7900
0.6808	0.1065	9.7854
-0.2746	0.3135	9.5276
-0.1316	0.5916	9.5599
-1.0714	0.7693	8.8456
0.0556	0.4714	9.5904
-0.2889	0.2201	9.0442
-0.5228	0.7274	10.0295
-0.2070	0.7322	8.7696
-0.7202	0.7603	9.1800
0.2907	0.6730	9.2524
-0.1825	-0.0215	8.2181
-0.4289	1.3394	10.5762
0.0341	0.4678	8.3461
-0.2824	0.4612	10.3316
-0.0437	0.6897	8.8588
-0.6831	0.7190	8.7164
0.0197	1.4130	9.2602
-0.0245	-0.0532	7.7467
-0.3260	0.9541	10.0019
-0.5617	-0.0694	7.6797
-0.8303	0.5444	9.7555
-0.3081	0.8112	7.9734
-0.5689	0.1926	9.4815
-0.1442	0.9511	10.4051
-1.0504	0.2859	8.6614
-0.5192	0.8488	10.6043
-0.5366	0.0520	8.7086
-0.1370	-0.1268	10.0851
0.0263	0.8088	9.4917
-1.0821	0.8327	9.6759
-0.6658	0.7860	9.5186
-1.0917	0.5809	9.4468
-0.9487	0.7633	9.8446
-0.5821	0.7920	9.6484
-0.2028	0.4122	9.5623
0.3440	0.1370	9.7549
0.2267	0.3972	9.8069
0.1023	0.1753	9.2117
0.0646	0.9799	10.5912
-0.2327	0.3828	8.3288
-0.3619	0.9864	10.1306
-0.2165	0.3787	8.6871
-0.4475	0.5653	9.4899
0.0891	1.1689	10.1575
-0.8853	0.3882	8.3007
-0.8279	1.3537	10.3555
-0.6712	0.0024	7.9794
-0.5779	0.2650	10.2329
-0.3936	0.7741	8.2181
-0.6700	0.1274	8.8612
0.0945	0.7741	9.6131
-0.5659	-0.2776	8.0985
0.0993	0.8345	10.0235
-0.5013	0.4666	8.3665
-0.4702	0.1962	9.7854
-0.7561	1.3878	8.2606
-0.7765	0.2997	9.0598
-0.9200	1.2108	9.6149
-0.5874	0.2303	8.7691
-0.6616	0.3709	9.7914
-0.2704	0.8776	9.0418
-0.2740	1.0361	9.8769
-0.4325	0.8584	9.3637
-0.4337	0.7549	10.3304
-0.9296	0.0598	8.6913
-0.0622	1.5487	10.3136
-0.4181	0.0676	8.9294
-0.1250	0.7424	9.7585
-0.3637	1.0253	8.8660
-0.5013	0.1627	8.7529
-0.7645	1.4459	9.5330
-0.7848	-0.0508	7.4123
-0.5677	1.5739	10.5206
-0.4445	0.4301	7.1300
-0.5426	0.8800	9.4953
-0.3434	1.0576	7.5619
-0.7047	0.2518	7.9675
-0.1759	1.3202	8.9252
-0.6849	0.4516	7.6923
-0.4295	0.9948	9.6699
-0.6628	0.3117	7.8885
-0.1089	-0.1663	10.0534
-0.6150	0.8806	8.5938
-0.1131	-0.2219	9.6472
-0.2698	0.6616	9.7076
-0.1358	0.0389	9.0693
-0.4349	0.5264	9.7148
-0.2010	0.4409	8.9318
-0.4229	0.5103	9.9535
-0.0610	0.3027	9.0364
0.0299	0.7621	9.8027
-0.4869	-0.0203	8.6452
-0.3805	1.0026	10.2131
-0.5928	-0.3081	8.8785
-0.5593	0.8919	9.7920
-0.8752	0.7095	9.0867
-0.3745	0.6532	10.1072
-0.5264	1.2239	9.9361
-0.5575	0.1059	9.2380
0.1675	0.6999	10.0390
-0.7119	0.1077	8.2863
-0.4774	1.1563	10.7365
-0.5115	0.2949	8.0051
-0.3015	0.4839	9.9056
-0.5743	1.4871	8.5710
-0.8506	0.2279	8.2396
-0.3087	1.4692	9.4947
0.0736	-0.3733	7.5535
0.2734	0.6479	10.2388
-0.2154	0.3673	7.6420
-0.0568	0.1454	9.2255
0.1005	0.7352	8.1116
-0.0383	-0.0939	9.0179
0.1992	0.7202	9.3493
-0.3733	-0.0263	9.4384
-0.2309	0.3553	9.7746
-0.4158	1.1814	8.7427
0.3117	0.1322	9.2351
-0.2189	0.4965	9.1142
0.0562	0.1663	10.0043
-0.7962	0.0520	8.9832
-0.0999	1.1330	9.8811
-0.9655	0.3093	8.5585
-0.0479	0.8650	9.8428
-0.6197	0.4427	9.3194
-0.2148	-0.1442	9.4002
-0.4301	0.9655	9.7310
-0.8243	-0.0167	8.7667
-0.2973	1.0780	9.8715
-0.6048	0.1807	7.5720
-0.5252	1.1378	10.0965
-1.0289	0.7824	7.6103
-1.0026	0.6317	9.5563
-0.7998	1.0995	8.2725
-0.7986	0.3565	8.4466
-0.6670	1.4357	9.8889
-0.6299	0.3212	7.8837
-0.3063	0.8399	9.8871
-0.5318	0.4014	7.8077
0.0084	0.0873	9.7118
-0.4744	0.8231	8.2863
-0.4259	0.7310	10.1324
-0.6628	0.6221	8.4975
-0.6054	0.7747	9.3990
-0.3793	-0.1101	9.1483
0.1711	0.6700	9.3792
-0.7860	0.9254	9.5312
0.1041	0.1256	8.7421
0.2716	0.8907	10.2442
-0.1908	-0.3374	8.6069
-0.6120	1.6923	10.2981
-1.1360	0.4367	8.8223
-0.7609	1.0941	10.4111
-0.8004	1.2760	9.1160
-0.6018	0.5204	10.5984
-0.8650	0.4516	8.9766
-0.6778	0.0209	9.3320
-0.7519	1.1097	9.3810
-0.4217	-0.0132	8.1499
-0.1017	0.7178	10.1856
-0.7513	-0.3595	7.7724
-0.0628	0.3613	9.8733
-0.5390	0.5761	8.1930
-0.8997	0.0772	9.2135
-0.1226	0.8435	9.1525
-0.3027	-0.1023	8.8121
-0.3159	0.8034	9.8177
-0.7974	0.6144	8.6931
-0.9799	0.5856	9.8769
-0.5862	0.6562	9.2997
-0.8477	0.5055	9.9750
-0.6748	0.7400	9.4127
-0.4026	0.7543	9.9613
-1.1982	-0.1866	9.0113
-0.8393	1.0169	10.4626
-1.4201	0.2991	7.7389
-0.2477	1.5864	9.9822
-1.0498	0.8530	8.6010
-0.5575	0.7651	9.0616
-0.1848	0.8901	9.3493
-0.2961	-0.7603	7.8191
0.0736	1.1904	9.5090
-1.0492	-0.0867	7.2233
-0.7717	1.2969	9.6239
-0.7256	0.7442	7.5774
-0.8776	0.4259	8.9730
-0.8853	0.7651	7.7078
-1.0343	-0.1226	8.0333
-0.9918	1.3669	8.8737
-0.2943	-0.2973	7.9591
-0.4008	0.6736	9.4905
-0.7202	0.5761	8.6542
-0.4211	0.1430	10.0157
-0.6736	1.0576	8.8887
-0.4714	0.4929	10.1282
-0.4457	0.4427	9.1633
-0.7137	0.5994	10.4745
-1.0247	0.4068	8.8558
-0.3476	0.9051	9.9403
-0.7932	0.0329	8.8325
-0.2680	0.7519	9.3960
0.0054	0.2919	9.8524
-0.3248	0.2554	8.5830
-0.1316	1.3531	9.8913
-0.5037	-0.7687	8.4783
-0.0072	1.3962	10.8143
-0.0365	0.2207	8.0039
0.1053	0.8106	9.8309
-0.1005	0.7125	8.9359
-0.4128	-0.3344	9.5270
-0.5121	1.5852	9.4761
-0.6203	0.0873	9.1507
-0.3840	0.7962	10.0797
-1.2006	1.0750	9.3768
-1.2646	1.6678	10.2556
-0.9565	0.8393	8.5704
-0.8698	0.7830	10.5852
-0.9015	0.7005	8.8343
-0.6790	0.5402	10.2329
-0.8907	0.4594	9.0388
-0.9673	0.7801	9.9930
-0.6796	0.4917	8.6374
-0.5384	0.8548	9.3655
-0.9410	0.5258	8.7655
-0.2028	0.9081	8.5824
-0.8142	1.1779	9.6825
0.0748	0.5970	8.3509
0.3224	0.9302	9.2727
-0.2608	-0.6347	8.5029
-0.3464	1.0690	10.1665
-0.7448	0.8477	8.3617
0.0676	1.0211	10.0187
-0.6102	0.4498	8.8277
-0.3942	0.6514	10.2293
-0.5581	1.0756	8.3808
-0.8746	0.6473	8.9647
-1.1222	1.3717	9.4121
-1.2341	0.3123	8.8235
-0.8638	1.9322	9.9595
-0.8871	0.6329	7.5463
-0.8315	1.0253	10.0809
-0.9882	0.0000	7.8203
-0.8327	0.6191	9.9984
-0.6036	1.3322	8.3354
-0.2973	0.5486	9.1357
-0.5982	0.7089	8.7547
-0.5240	0.2746	9.2428
-0.1771	0.1065	9.2267
0.1065	0.6879	9.4917
-1.2066	0.4750	9.5030
-0.1753	0.9464	9.4971
-0.3482	0.9135	9.5742
-0.1256	-0.2231	8.5256
-0.5019	1.1587	10.1036
-1.1049	-0.0909	8.1756
-0.0772	1.4632	10.0923
-0.9637	0.2788	7.8101
0.0120	0.6353	10.1377
-0.1107	0.3476	7.4416
-0.0138	0.4463	9.3912
-0.9607	0.6951	8.2408
-0.3565	0.2022	8.1762
-0.6203	1.0271	8.7290
0.2877	-0.2411	7.8634
-0.6114	1.4447	9.7028
-0.4361	0.4050	7.7072
-1.2030	1.4393	9.7088
-0.7567	0.8913	7.4111
-0.0150	-0.3703	9.8889
0.0963	0.3571	7.7258
0.0006	0.2937	9.1770
-1.1605	0.1400	9.0029
-0.8423	0.9069	8.6213
-0.9858	0.4552	8.5346
-0.3667	0.4319	8.0913
-0.6221	0.8578	9.1274
-0.2189	0.0957	8.6135
-0.0975	0.7759	9.4205
-0.2776	-0.3045	8.0452
0.3966	0.5521	9.8057
-0.1358	-0.7777	7.7366
0.2154	1.0385	9.9804
-0.4833	0.8243	7.1605
0.1687	1.1145	9.4743
0.4038	0.5868	8.4359
0.1561	-0.0873	8.1768
-0.7137	1.8724	8.7846
-0.4744	0.7137	8.2516
-0.9888	1.5069	8.8426
-0.1346	0.7711	8.2259
-1.2879	1.0211	10.0301
-1.1432	0.6287	8.1278
-0.6102	0.9769	10.1611
-1.4058	1.1611	7.3023
-0.4983	1.2149	10.0743
-0.5276	-0.0897	7.7802
-0.3727	0.9936	9.4612
-0.6855	0.3159	8.5447
-1.1707	0.8835	8.9025
-1.7862	1.0463	8.5513
0.0138	0.3236	8.2133
-0.5880	0.7944	8.9838
-1.0768	-0.3900	8.4987
-1.2197	1.6349	10.1198
-1.3304	0.6891	7.0325
-0.4618	1.4423	9.4803
-0.3404	-0.0197	7.3477
0.0497	-0.2835	8.9593
-0.5641	0.9565	7.6379
-0.8321	0.9218	9.9894
-0.9308	0.8034	8.3318
-0.4337	0.6562	9.2733
-0.6592	0.7675	8.8707
0.5713	-0.0054	7.8161
0.0634	0.5611	8.9611
-0.0305	0.5695	7.1037
-0.6975	0.9631	9.5539
-0.1370	-0.0150	6.8482
0.3326	0.7256	8.9778
-0.5665	-0.2273	6.9870
-0.5049	0.9990	8.6835
-0.7107	-0.1322	7.6229
0.1968	0.1627	8.4807
-0.3727	0.3230	8.9288
0.4295	-0.5940	8.2839
-0.6568	0.9571	9.6753
0.1753	-0.5318	8.2923
-0.2853	0.5976	9.5024
-0.2363	-0.2572	8.1439
-0.3428	0.5886	9.7692
-0.3924	-0.1454	8.4173
0.7848	0.2309	10.5852
-0.6909	0.0927	8.3126
-0.3302	0.8076	10.4171
-0.5162	0.0467	7.9675
0.1723	-0.5904	10.3531
-0.2339	0.4445	8.8307
-0.1759	-0.4092	8.9449
-0.7549	0.8506	9.4289
0.1567	0.6287	7.5314
-0.9805	0.9613	9.1256
0.3123	0.0634	6.9511
0.0275	0.8674	8.6829
-0.4750	0.9487	6.3212
-0.4678	1.5146	8.9306
-1.4554	0.6951	6.7292
-0.7836	1.5763	7.7240
-1.1085	0.7585	7.6642
-0.1268	0.5222	7.7431
-1.1755	0.8985	8.7338
-0.7071	0.7083	9.0771
-1.7886	1.4189	9.3834
-0.6814	0.2297	8.5322
-0.4720	0.8871	9.7381
-0.4403	-0.0724	8.0075
0.5587	1.2167	10.2263
-0.6413	-0.1298	7.9902
0.0688	0.7902	10.0354
-0.3105	0.2602	7.9716
-0.2423	-0.0233	9.5186
-0.4217	0.3326	8.0022
-1.0199	0.2058	8.3288
-0.9505	1.1820	8.6608
-0.3176	0.0096	8.5304
-0.6353	0.5593	9.6789
-0.7208	0.4146	7.9728
-1.2269	1.3795	10.1982
-1.5272	1.2030	7.6390
-0.9380	1.2831	9.4432
-0.2847	0.3464	7.4237
-0.2411	0.6144	9.5509
-0.9123	0.2363	7.5427
-1.1880	1.4201	9.2967
-1.3932	0.9846	8.6470
-0.1083	0.7717	8.2965
-0.8752	0.5145	9.1579
-0.3900	0.2417	8.6997
-1.1970	1.6397	10.0953
-1.1294	0.6263	8.2749
-0.5234	1.4506	9.9254
-0.5151	-0.0425	7.9477
-0.0766	1.0253	10.1431
-0.3541	0.2195	7.6390
-0.4247	1.4967	9.6987
-0.6861	0.7513	8.9473
-0.7466	0.0191	9.3116
-0.5306	0.8949	8.5298
-0.6245	0.3613	7.8855
-0.4588	1.2461	9.2339
-0.6861	0.3882	8.1571
-0.9793	1.5075	9.5144
-0.2949	0.1262	8.7367
-0.1914	0.3051	9.2422
-0.7065	1.1850	8.3754
-1.1964	1.2114	9.7728
-1.1097	1.3759	7.7162
-0.4696	1.2580	10.2819
-0.9398	0.7573	8.1655
-0.3673	0.9200	10.0857
-1.5691	0.4325	7.2335
-1.1264	1.4704	8.7397
-1.4171	0.5521	8.5328
-0.5121	0.0820	7.3740
-1.4518	1.1731	8.7056
-0.3858	0.3057	7.3956
-0.0455	0.7531	9.4265
-0.1202	-0.3045	7.3417
0.0993	1.0798	9.3792
-0.1472	-0.2967	7.4381
0.0843	1.2873	9.7830
-0.4062	0.1765	8.5585
0.1896	1.1671	9.7429
-0.7747	1.5487	8.2791
-0.6054	0.5683	9.0287
-1.0451	1.1551	9.0000
0.1848	-0.2800	8.1397
-0.8943	1.3657	9.4498
-0.4205	0.2889	8.9019
-0.9099	1.4207	8.9330
-0.6885	1.0780	8.6686
0.0191	0.7573	10.5128
0.3482	-0.2225	8.2145
0.4881	0.0993	10.2041
-0.2447	0.3649	7.8538
0.1358	0.4714	10.0163
-0.7669	0.8082	7.0510
-0.2871	1.0696	8.8510
-0.8877	0.4941	7.0696
-0.1310	-0.0347	7.4871
-1.0313	0.6054	8.7954
-0.7537	0.7137	7.0743
-1.7408	1.0780	8.9407
-0.9870	1.0971	6.7340
-0.8584	1.6247	8.9228
-0.7836	0.1561	5.8319
-0.2578	0.3583	9.1645
0.0018	-0.5809	7.3411
-0.3003	0.1836	8.3192
-0.6156	-0.3870	8.7385
-0.2518	0.1771	8.2157
-0.9380	0.6132	8.7894
0.0538	-0.2213	7.2137
-1.0433	0.7860	9.2697
0.4307	-0.1328	8.8283
-0.8512	1.4046	9.7304
-0.7358	0.3679	9.5694
-0.2536	0.3607	9.9714
-0.3727	0.4702	9.3966
0.4169	1.2413	10.6887
0.0066	0.1657	8.6111
-0.2010	0.9852	10.7551
-1.4895	1.2144	8.5100
-0.2698	1.1659	9.7363
-0.7011	0.9966	7.4955
-0.2369	-0.0419	8.7894
-0.5994	0.6407	8.5567
-0.1238	0.0167	7.5619
-0.1759	1.3747	9.4205
-1.1803	1.1444	7.8418
-0.5402	1.0744	9.0209
-0.4349	0.8189	6.4977
-0.0694	0.5527	9.3015
0.1412	0.3027	6.2841
0.2554	-0.3081	9.5240
-0.2219	1.1037	8.0159
0.2321	0.9840	8.8612
-1.0660	0.8506	9.0688
-0.8082	-0.1178	6.9409
-0.9248	1.0427	8.2061
0.4301	-0.7478	6.3589
-0.9081	-0.1376	9.1585
-0.6090	0.0383	7.2981
-0.8381	0.6132	9.3200
-0.2040	1.2227	7.4871
-0.0604	0.5234	8.9156
-0.5133	-0.4128	7.6402
-0.3954	0.2393	9.5677
-0.8417	0.6861	9.2380
-0.1651	0.8638	9.0179
-1.7127	1.1814	9.2087
-0.4708	0.7292	7.9998
-1.1773	0.9631	9.3463
0.2883	0.4516	7.7437
-1.0672	0.7771	9.1992
-1.0421	0.0287	8.8588
-0.3416	0.7711	9.3625
-0.8034	0.7603	8.5722
-0.3589	1.6116	9.1758
-0.2668	0.0843	8.5944
0.0586	1.0271	9.7956
-0.9356	1.3005	9.2213
-0.7980	2.0321	9.8380
-1.7659	1.8443	9.8195
-1.0163	0.7196	9.1698
-0.4534	1.4716	9.8123
0.0144	-0.4893	8.6374
0.5527	1.0032	9.9984
-0.4504	0.4612	8.7272
-0.0532	1.2275	9.8171
-0.4594	0.6353	8.1338
0.3535	0.5162	9.4319
0.1376	0.5599	9.0807
0.5850	-0.0748	9.3290
-0.9727	1.2778	9.4396
-0.4421	0.4762	10.2472
-0.3332	0.1651	9.4031
0.5659	-0.1627	9.6855
1.1294	0.0138	9.5013
0.7651	-0.6556	7.9752
0.3194	0.2524	9.9379
-1.0983	0.1968	7.5302
0.0162	1.0947	10.3405
-0.0939	0.2818	7.6283
0.2937	-0.1298	9.8829
-0.5222	0.3153	8.3802
-0.3673	0.4343	8.7158
-0.9123	2.0141	8.7092
-0.6694	0.3117	8.1924
-0.2824	1.4512	8.7631
0.5336	0.0383	7.1778
0.3547	0.9679	9.4061
-0.7424	0.2818	7.0887
-0.2279	0.8183	9.7531
-0.5390	1.5918	7.6331
-0.2973	0.8285	9.2039
-0.6102	0.7208	8.5268
0.3021	-0.0855	9.0167
-0.5450	1.4955	8.5501
0.1011	1.0995	8.8983
-0.8967	1.1970	8.8061
-0.8028	0.0568	9.0059
0.2489	1.4536	9.7555
-0.5886	0.8518	8.2881
-0.1537	0.7250	10.6331
-1.4112	0.3954	7.5445
-0.1412	0.1579	9.8500
-0.8231	1.1204	8.0051
0.7125	-0.6467	9.3559
-0.2411	0.5408	9.1561
0.5486	-0.5474	8.5286
0.4780	0.8698	9.1740
0.0855	-0.1268	8.2827
0.2213	0.5133	9.5611
-0.1842	0.2841	8.4030
0.5462	0.8895	10.4165
-0.1358	0.6526	8.4281
0.1603	0.8022	9.6538
-0.5258	0.5832	8.5052
0.2195	-0.2883	9.9206
-0.6837	1.2712	9.1328
-0.1346	-0.1184	9.2285
0.2357	0.9087	10.1042
-0.3523	0.2154	8.4137
0.0323	0.7125	10.0133
-0.3296	0.1208	8.6859
-0.2201	0.5426	10.3052
-1.7115	1.1623	8.6339
-0.5043	1.5535	9.8817
-0.9966	0.7807	8.7696
0.3482	-0.2602	9.9074
-0.8381	0.3230	9.1346
-0.4540	0.3559	9.1495
0.2411	1.3537	10.2592
-0.3715	-0.2333	8.8301
0.5366	0.5109	10.1072
0.3775	-0.1687	7.8849
0.8500	0.0664	9.3164
-0.3266	0.4283	9.0526
-0.0090	0.3511	9.7106
-0.5838	0.3793	8.8025
0.9523	0.0760	8.7732
0.0425	1.2700	9.5258
0.0353	-0.5581	8.4873
0.1926	1.6540	10.3507
-0.4827	1.3244	8.3348
0.4606	1.2060	9.8865
-0.0832	0.3164	8.6596
0.3888	0.3075	9.8350
-0.3302	0.8578	9.0705
0.0544	0.5007	9.9906
-1.2802	1.1994	9.2422
-0.9141	0.6694	9.9900
-1.1862	1.0708	9.3894
0.4397	-0.0138	9.1274
0.1705	1.2263	10.5463
-0.4020	0.2782	8.6787
-0.4271	1.1832	10.5248
-0.8303	0.2423	7.7114
0.1418	1.1599	9.5473
0.1292	0.6132	7.5738
-0.0329	-0.3356	8.9485
-0.7304	0.6293	7.5828
-0.1950	0.3858	7.9938
-1.0905	1.9148	8.3377
-0.4947	0.6909	7.8371
-0.0712	0.6072	9.6957
-0.0090	-0.0024	7.1210
0.5061	0.5964	9.8159
-0.3882	0.4558	7.7102
-1.2574	0.7208	10.2245
-1.4249	1.0768	7.1599
-0.4080	0.8584	8.7643
-0.5725	1.4016	9.4133
-0.3248	0.5539	8.3120
-1.7587	1.3166	9.2016
-0.8136	0.8662	8.2959
-0.8357	0.8979	9.2877
-0.1681	0.8291	7.4004
0.4786	0.2800	9.5300
0.1765	0.4080	7.1479
-0.2118	1.3047	9.4857
-0.2841	0.1292	7.7641
-0.4684	0.3350	9.3954
-1.0558	0.5336	8.2073
0.7717	0.4169	8.2737
-0.6179	0.4528	9.2488
0.6060	-0.1699	7.2771
0.0257	1.2018	9.3098
-0.1819	0.5252	7.7240
-0.6347	1.2550	9.0341
-0.6580	-0.4833	7.7234
0.1842	0.7836	8.9742
0.2471	0.0849	7.6941
-0.0921	0.3362	9.2674
-0.5605	0.1340	8.7302
-0.7615	-0.1131	9.2267
-1.4943	1.1264	10.4524
-1.4536	0.8231	8.8989
-0.9697	1.0935	10.2089
-1.1222	-0.3936	8.4490
-0.2177	0.5444	10.1395
-0.1190	-0.0712	7.8945
-1.4979	0.2668	9.6203
-1.3711	1.7797	8.9617
-1.9095	0.9547	9.1896
-0.7202	1.3896	8.7631
-0.7657	0.0269	8.8295
-0.3876	1.0146	8.4711
-0.3428	0.3051	8.0674
-0.4175	0.4546	9.3846
-1.3507	1.3143	8.5459
-1.1073	0.8746	9.7525
-1.0684	0.5079	7.3908
-0.4899	0.6401	9.6502
-0.0072	0.5785	7.1814
0.5210	0.1131	8.9641
-0.9200	0.8979	8.3874
0.0012	0.7448	7.5302
-0.8435	0.9170	8.8205
-1.1109	1.2443	6.9768
-0.4941	0.8106	9.0293
-0.1771	0.4277	6.4672
-0.4259	0.8177	9.3463
-1.0187	0.6604	6.2793
-0.3751	0.8835	8.5052
-1.3466	0.5928	7.2024
-0.0215	0.9757	7.2981
-1.0415	0.7507	8.0715
-0.2435	0.2357	7.2616
-0.3458	0.8865	9.3583
-0.0604	0.2800	6.4020
0.2489	1.0074	9.1950
-0.3111	-0.3643	7.6044
-0.3511	0.3978	8.9958
-0.8494	0.8034	7.9543
-0.3553	1.2700	8.1056
-0.4953	1.0654	8.6727
0.2285	-0.5414	6.8949
0.0263	1.1402	9.1190
0.0748	0.6694	8.0602
-0.1908	0.7214	9.5102
-0.5880	0.1609	8.9862
-0.5127	1.3908	9.8063
-0.5306	1.0582	8.3228
-0.0939	0.9332	10.0588
-0.4738	0.1262	8.6889
0.0167	0.0837	9.7423
-0.4887	0.6556	9.2021
-0.1549	0.1220	8.6536
-0.0167	1.1480	9.1956
-0.1801	-0.2506	8.3730
0.4983	0.8225	9.6245
0.2399	-0.0162	7.9908
0.3793	0.5958	9.8542
-0.9428	1.0863	8.1050
-0.9278	1.0301	9.0831
-0.9027	1.7767	8.1882
-0.3517	0.2662	8.0099
-0.3236	1.4040	8.8343
-0.2088	-0.0042	7.8825
-0.4977	0.9224	9.6729
-1.1731	0.7089	7.7796
-1.3525	0.9224	9.5527
-1.2066	1.0726	7.1228
-0.5635	0.3368	9.1902
-0.7095	0.7591	7.8323
0.5988	-0.0167	8.8630
-0.0957	0.4857	9.2039
0.3972	-0.1513	8.6883
-0.7801	0.3362	9.1106
-0.4110	0.0335	7.4010
0.1292	-0.2070	10.0941
0.6419	-0.0927	6.3679
0.5791	-0.3033	9.3296
-0.4259	0.1615	6.4684
0.0126	0.8237	8.7367
-1.3687	0.2865	8.5429
-0.6144	0.2812	7.4865
-1.1145	0.4134	8.4484
0.0138	0.3882	7.0516
-0.3990	0.7489	8.7637
-0.1250	-0.3182	6.4241
-0.8159	1.1240	8.7816
-1.3244	0.8195	7.3794
-1.0116	0.7406	9.2620
-1.1180	-0.0508	8.1332
-0.1190	0.7765	8.9934
-0.9882	1.1258	8.3760
-0.2231	0.4481	8.1726
-1.1480	1.3214	9.8697
-1.1797	0.7543	7.9938
-0.8554	1.7838	9.0406
-0.2495	0.0012	8.0698
0.1412	0.8231	9.6753
0.5497	-0.3852	7.9513
0.4110	0.5844	10.0307
-0.2835	0.2853	7.9352
-0.5013	0.6108	9.7627
-0.4122	0.8584	8.2109
-0.6425	0.1944	8.5854
-0.0820	1.2873	8.0949
0.3069	-0.4558	7.5356
0.5497	0.6102	8.8845
0.8052	-0.2626	7.2466
0.5569	0.2423	9.5048
-0.3823	0.9691	8.0004
0.0999	0.6616	9.4325
-0.2100	0.9344	7.0367
-0.2895	0.6287	8.7744
-0.4301	0.7914	7.2412
0.3464	0.3194	9.4079
-0.4534	0.1513	9.0215
0.0742	-0.0443	8.9048
-0.6568	0.5623	9.7627
-0.2728	0.2542	7.2371
-0.1890	1.0714	9.3924
-0.6760	-0.0909	6.3326
-0.3200	0.6329	9.3475
-0.0185	0.4181	7.7814
-0.2722	0.4845	8.7942
-1.0887	0.0718	8.3874
-0.5157	0.5731	8.0626
-0.8662	0.8064	9.5419
-0.2548	0.4857	7.9130
-0.8955	0.9338	9.0987
-0.0640	-0.2459	7.8036
0.1789	0.2393	9.4546
0.3846	-0.1358	8.0327
-0.3045	0.9906	9.6083
-0.9787	0.7801	9.3601
-0.2411	0.4211	9.1932
-1.0935	0.8363	8.6638
-0.1819	0.6419	8.5974
-0.3434	0.5551	8.9180
0.3045	-0.7519	8.3928
0.0778	0.3727	9.1800
-0.6449	0.5581	8.8313
-0.0084	1.3143	9.8805
-1.3250	0.8542	8.1278
-0.5294	1.1605	9.2931
-0.8991	1.3274	8.3874
0.4110	0.2273	9.4139
-0.3242	0.5097	9.3583
-0.5791	-0.1836	9.1806
-0.1956	1.2514	9.4941
-1.0343	0.9009	8.4167
-0.3290	1.4895	9.5880
-0.7125	0.6293	7.8795
-0.2865	1.2802	10.0881
-0.1131	0.7346	7.7617
0.0688	0.0694	9.3774
-1.4692	1.6678	8.5854
-1.4806	0.9230	8.5280
-1.3436	1.8544	8.6979
-0.2369	0.1340	7.7509
0.1621	0.7866	9.6526
0.1962	0.2560	7.1665
0.0885	-0.0335	9.5359
-0.2100	0.4780	7.6941
-0.9410	0.9583	9.3690
-1.1360	1.6570	8.5842
-0.1789	0.6389	8.8438
0.0891	0.9452	9.3589
-0.1190	-0.0072	8.0010
0.2363	-0.0383	10.0348
0.0778	-0.4229	7.3962
-0.8273	0.1316	9.8650
-1.0187	1.1420	7.9328
-0.2877	0.3164	9.2021
-0.2818	0.7005	7.5039
-0.1047	0.0197	7.9705
-0.5677	0.8189	8.9784
0.7675	-0.6251	7.3220
-0.3733	0.1364	9.3948
-1.1695	-0.0790	7.4363
-1.1168	0.9793	9.1704
-1.3460	1.6642	6.7184
-0.9799	0.8991	8.3629
-1.1970	0.3218	7.3860
-0.0694	0.3117	8.5633
-0.5629	0.0814	8.7966
0.7795	0.1813	7.7599
-1.2909	1.1456	8.8097
-0.6897	0.7603	7.5667
0.1950	1.2437	9.3116
0.1400	0.4373	7.1031
0.0365	0.8626	9.1746
0.1394	-0.7322	7.5577
0.0562	0.1412	7.8837
-1.4716	0.5390	7.8329
-0.3176	0.6144	8.2199
-1.9262	0.7172	8.9252
-0.6455	0.8177	7.9507
-0.8985	1.5751	8.5651
-0.3380	0.0963	8.6889
0.0251	0.5157	9.6071
0.1914	0.0383	7.4542
0.1161	0.9039	8.6135
-1.2455	0.8483	8.1804
0.0162	0.8171	8.9336
-0.5432	0.9224	7.4680
0.3529	0.0227	8.7009
0.0526	0.0431	7.9453
0.7376	-0.8997	7.4291
0.1382	0.8028	8.5567
-0.6849	0.2865	8.1960
-0.2213	1.1420	9.6855
-0.8590	0.9619	7.0271
-0.4092	1.1743	9.0861
-0.8423	0.9751	7.1563
0.0006	-0.5653	9.3182
-0.1011	0.5198	7.2466
0.3494	-0.6102	7.7186
-0.4702	1.4716	8.5112
-0.6574	0.7149	7.1473
-0.5210	1.3298	8.4442
-0.8668	0.5988	5.8534
-0.1250	0.3924	9.1184
-0.0030	0.2572	6.5641
-0.7053	0.0491	9.0281
-0.9164	0.5749	6.4020
-0.3272	0.2626	7.8484
-1.0576	1.2664	8.2014
-0.6742	0.5390	7.8472
-1.2933	0.7998	8.8612
-0.3715	0.6126	6.7639
0.1041	-0.0514	9.5868
0.1113	0.0664	6.2614
-0.3260	0.1561	9.6185
-0.7531	0.3942	7.7665
-0.8261	0.5246	8.4747
-1.4823	1.0660	8.2636
-0.7489	0.4038	7.5613
-1.4052	0.2465	8.5226
0.0323	-0.1819	6.6221
-0.3362	0.3553	9.4295
0.1376	-0.2788	6.5431
-0.2847	0.7573	8.9922
-0.8572	-0.2094	7.2825
-0.3966	0.7711	8.8438
-0.4504	0.1651	8.7900
-0.3009	0.1250	9.3236
-0.2524	0.4181	9.4121
0.5366	0.0526	8.7445
-1.0301	1.2628	9.4576
0.0921	0.2973	8.9485
-1.0947	0.9266	9.5754
0.0060	0.1561	8.8600
1.0995	0.6993	8.9389
0.6215	-0.3147	8.8773
0.9278	0.3978	9.5892
0.2865	0.1250	8.3712
1.1844	0.6694	9.1130
0.6616	0.6574	7.5822
0.4636	0.5617	8.8055
-1.1844	1.0558	6.7477
0.3476	0.9822	8.6171
-0.4947	1.1372	8.0434
-0.7430	0.1795	7.6923
-1.2532	2.1075	7.8382
-0.6820	0.8411	7.0612
-1.2867	2.0991	8.5962
-2.0752	1.9627	7.0343
-1.0379	1.8461	8.9120
-1.1713	0.9822	6.5007
-0.5366	0.1860	8.4233
-0.5067	0.6999	6.9080
-0.4672	-0.2447	8.1750
-1.0062	1.2455	7.1132
-0.4708	0.0646	7.7114
-0.4522	0.9547	8.6662
-0.2871	0.0054	7.6821
-0.7974	0.7801	8.9348
-1.1575	0.2165	6.3966
-0.8488	0.5378	8.8079
-0.7884	0.8895	6.1477
-0.7771	0.5497	9.4121
-0.2967	-0.2650	6.4815
0.2853	-1.1988	8.1230
-0.3308	0.3099	7.3058
0.4062	-0.1149	6.6371
-0.9739	0.1537	8.5208
-0.4810	0.2118	6.4654
-0.5545	0.3153	7.5834
-0.5653	1.3406	6.7860
-0.5432	0.7914	8.9892
-1.1067	0.3703	6.4014
-0.8662	0.6712	9.2967
-0.1519	0.5719	8.8175
-0.1944	0.2016	9.2859
-1.6857	1.4100	8.7523
-0.5330	0.8124	7.4584
-1.4189	1.4010	7.8789
-0.2339	1.3304	6.4103
-1.8921	1.5422	8.5860
-0.5420	0.6120	7.5338
-1.3190	1.0869	9.2255
-0.9129	0.5258	7.7629
-0.4504	1.2957	9.1208
-0.8500	0.6449	8.4412
0.1340	0.4457	8.9934
-0.2824	0.3087	9.1926
0.5067	0.3805	8.3958
-0.5970	1.2736	8.9892
0.5390	0.3350	7.7084
-1.5625	1.6953	9.3942
-0.1854	0.9763	8.5555
-1.6044	2.2068	9.3344
0.0078	0.3966	8.3760
-0.6299	0.6413	8.0345
-0.2500	0.8524	8.2618
0.0748	0.7149	7.9124
-0.0592	0.7531	8.9383
0.5922	0.5743	8.2989
-0.6138	0.5994	9.1070
0.8578	0.9529	8.0159
-0.1143	0.5121	9.5850
0.6855	0.2333	8.4006
0.6550	-0.3230	9.7776
1.0971	-0.3769	8.6602
0.6514	0.1256	8.5722
-0.8500	0.5300	9.3361
-0.3200	0.5557	7.8227
-0.6030	0.2566	9.0783
0.6257	0.1627	6.5001
0.2393	0.3954	9.1782
0.8028	-0.1406	7.2341
-0.0239	-0.3793	9.0765
-0.4516	0.1244	8.3455
-0.6419	-0.0586	8.2929
-1.2825	0.9141	8.7290
0.5133	0.6622	7.3070
0.5085	0.0395	8.7942
1.1109	-0.6114	7.8394
0.3356	0.5797	9.8428
0.0078	0.7364	7.1276
-1.1886	1.3998	9.6867
-0.6203	1.1707	7.9005
0.1292	0.6790	8.7846
-0.3811	0.6126	7.9166
0.4289	-0.0485	7.7521
1.0265	-0.2883	8.7762
1.3424	-0.1143	7.4739
-0.3117	0.8315	9.9427
-0.8710	1.4776	7.5009
-1.0086	1.3358	9.6101
-0.0078	0.8566	6.8111
-0.4481	0.8500	9.1028
-0.0281	0.3583	7.5033
-0.1795	0.3571	8.2510
0.0054	1.0080	9.1579
0.8841	0.1992	7.7802
-1.2664	1.4758	9.1770
0.2171	0.5372	6.8357
-0.0473	0.3320	8.9419
-0.0891	0.1418	6.7597
-1.0205	0.4810	9.3529
-0.2165	0.4816	7.5170
-0.2877	0.1119	8.4622
-0.2620	0.9589	7.3770
-0.1388	-0.2130	7.3112
-0.1107	0.7561	9.0729
0.9392	0.3332	6.8853
-0.2471	0.5396	9.2177
0.3864	0.1089	7.4668
-0.5192	0.3547	9.5485
0.4433	0.5204	6.5378
-0.6042	1.0821	8.5513
0.0245	0.8154	8.5615
0.3093	0.3918	7.9812
0.3972	0.6329	8.7218
-0.0479	0.3320	7.7294
-0.4929	0.7322	8.9730
0.5539	0.0969	6.5372
-1.1922	1.0050	8.7918
-0.6479	1.5152	7.7677
-1.8275	1.8215	9.3804
-0.9105	1.1180	9.1280
-0.5025	0.2740	8.5202
-0.2500	0.3691	9.0861
0.5515	0.0102	8.4819
-0.0969	-0.3027	9.7698
0.2740	0.2835	8.8355
-1.0798	1.0827	9.6867
0.5982	0.7639	8.1475
-0.8931	1.1390	9.2309
-0.0227	0.0030	8.5268
0.6778	0.5671	9.5677
0.9649	-0.4666	8.5387
0.3763	-0.0598	9.0915
-0.1125	0.8040	9.7405
0.6449	0.3176	8.3324
-0.9793	1.6349	9.9696
-0.5486	1.1007	7.8568
-1.2114	1.0373	9.4755
0.5934	0.6808	8.2384
0.6867	0.3505	8.8749
-0.5480	-0.3505	8.1744
-0.1872	1.2179	8.6063
-0.7944	1.2909	8.3748
0.8512	0.8907	7.9621
-0.3099	0.3464	8.4532
0.2160	0.5659	6.9852
-0.7519	1.8921	8.4215
-0.3182	1.0588	7.0516
-0.6000	1.0504	9.2901
-0.3811	0.5390	7.9316
0.4319	0.7364	8.8636
0.4498	0.4205	8.5878
1.1761	-0.2698	7.9453
0.2734	0.1651	9.0879
0.8572	0.3499	7.3130
-0.8321	1.0582	9.3116
-0.2961	0.0832	8.5477
-0.8171	0.6437	9.6323
0.1813	0.9141	8.4263
0.7400	0.7962	9.6149
-0.0197	0.3099	9.0227
0.2841	0.6365	9.4008
-1.0540	1.1814	8.7517
-0.8004	1.5152	8.8971
-1.9729	2.2941	9.9104
-0.9081	1.0672	8.9533
-0.4516	0.8177	9.5617
0.2764	-0.6532	8.0363
0.4110	0.6831	9.4444
-0.0718	0.4134	9.0406
0.3344	0.7184	9.7226
-1.0271	0.7621	9.0634
-0.4606	1.0899	9.1232
-0.8453	1.2239	8.8701
-0.2291	-0.4822	9.7411
-1.2149	0.5545	9.3876
-0.4941	-0.0766	9.6909
-1.7862	1.9077	9.1022
-1.3495	1.0935	10.3848
-0.8728	0.8207	9.4528
-0.6203	0.3984	8.8151
-0.0042	1.1958	9.2141
-0.4319	0.5043	8.5256
-0.2369	0.3984	10.3495
-0.7741	0.9864	8.2205
0.1501	0.4570	10.1676
-0.9422	0.8656	8.2899
0.0826	-0.1717	9.2362
-0.2321	0.7627	8.7559
0.0832	0.2877	9.4534
-0.4798	0.7484	10.0995
-0.3763	-0.1190	8.3952
-0.4427	1.2455	10.5116
-0.8907	0.9673	7.2807
-0.2734	0.5312	10.0989
-0.7866	0.6042	8.0865
-0.3051	0.2435	9.4600
-0.5312	0.8189	7.1958
0.0861	0.2740	8.4969
-1.2413	0.8219	7.3447
-0.7196	0.5001	7.3166
-0.8339	1.8520	9.0699
-0.4223	0.9416	6.9481
-0.0760	0.2776	9.0478
-0.1801	0.0227	7.2795
-0.0191	0.0784	8.3964
0.0491	0.5378	6.6149
-1.1216	0.8632	9.4731
-0.8758	0.9984	7.2406
-0.5773	0.3452	8.6309
-0.8931	1.5308	9.3302
-0.5390	0.8465	8.2181
-1.3848	0.8285	9.1914
-0.8207	0.8351	6.6759
-0.7753	0.7472	8.8020
-0.6317	0.9152	7.1282
-0.8985	0.6431	9.9505
-0.7501	-0.5330	6.5090
-0.5450	0.4869	8.4466
-0.1842	0.6287	8.4682
-1.6026	0.8100	8.6967
-1.7874	0.7567	8.7308
-0.0909	0.6245	7.2233
-1.0355	1.2263	9.1322
0.1549	0.5222	7.0648
-1.4429	0.9870	9.5306
0.2070	-0.1615	8.6374
-0.6030	0.8267	9.6065
-0.0263	0.9057	9.2650
-0.8722	1.0295	8.9946
-0.4241	0.4403	9.3834
0.0837	0.8471	9.1495
0.6341	0.7657	9.0029
0.4624	0.3876	9.7058
-0.2518	0.6161	9.5024
-0.0197	0.6532	10.2574
-0.9278	1.2867	8.8355
-0.2225	1.0929	10.0384
-0.0078	0.8955	8.4209
-0.0796	0.3715	8.4281
0.1077	1.4381	9.0149
-0.5791	-0.0048	7.7294
-0.2417	0.6796	9.6442
-1.3113	1.2167	8.1750
-0.5629	0.9392	9.8051
-1.3011	0.4140	6.8949
0.0754	-0.3637	9.5395
0.0766	0.6126	8.5459
-0.3894	-0.2877	9.1621
-1.0157	1.9759	8.7607
-0.9751	0.8453	8.1068
0.3721	1.1474	9.4103
-0.0233	0.2656	7.7820
0.1460	0.8776	9.8955
-0.2871	0.7460	7.8107
-0.1633	0.7220	9.7537
-0.8148	1.9860	8.0847
-0.7352	0.7824	8.9246
0.4493	0.3954	8.5017
0.7795	-0.5838	8.4807
0.2662	1.3131	8.7463
-0.2746	1.1761	8.3982
-0.3242	1.0151	10.4255
-0.7860	0.2381	7.8574
-0.1322	0.3649	9.9092
0.4792	0.7842	8.1248
0.2650	-0.4313	9.8153
-0.6395	1.0469	9.6311
0.4786	-0.4205	9.4558
0.2722	1.2706	9.0215
0.1214	0.6275	8.8456
-0.1549	0.4032	9.6574
-0.3392	0.2327	8.0973
0.1280	0.8901	10.3603
0.1155	1.0576	8.7744
0.1992	-0.1005	10.1060
-1.1767	0.7322	7.9531
0.1741	0.2453	9.3266
-0.1095	1.0905	8.5417
0.1938	0.2249	9.0729
-0.0550	0.5480	9.9003
-0.4187	-0.1747	7.7730
0.2201	0.9212	9.8428
-0.7166	1.1761	8.0219
-0.1053	0.2961	10.1748
-0.9458	0.3996	9.1292
-0.2345	0.6102	9.9912
-0.0921	1.3860	9.3631
-0.0096	0.3099	9.4109
0.2154	0.9828	8.9324
-0.1729	-0.0341	7.1970
0.7489	1.3854	9.7220
-0.0042	0.9685	7.2317
-0.3063	0.3494	9.7663
-0.9021	0.9667	7.7198
-0.1274	0.6317	8.5842
-0.5139	1.8957	8.6931
-0.5097	0.3021	8.9150
-0.3523	1.0146	9.1238
0.3697	-0.0766	7.8353
0.1256	1.1623	10.3256
-0.2973	0.7125	7.6600
-0.5384	0.3529	9.8291
-0.8357	0.7268	6.9146
-0.7549	0.6574	9.1034
-0.5605	1.0792	8.6793
-0.4379	0.0347	8.6973
-0.4588	0.7137	8.9019
0.2136	-0.5850	8.0398
-0.1507	1.1127	9.3026
-0.1256	0.4875	8.2797
0.2195	-0.3966	9.6873
0.6993	0.0879	7.6462
0.5515	-0.0820	9.9619
0.0012	0.5103	6.9427
-0.2674	0.4307	9.7417
-1.1683	1.2197	8.8020
-0.8488	1.2030	8.9551
-1.4171	0.5928	8.5226
-0.8399	1.0062	7.9046
-0.8865	0.7155	8.2594
-0.6233	0.6802	7.0755
-1.0163	1.0319	9.1603
-1.3860	0.9799	7.4889
-0.9589	1.6612	9.0454
-1.8915	1.3370	7.2012
-0.9440	1.8969	8.0380
-1.3166	0.2943	7.0702
-0.7226	0.7143	8.4323
-0.1711	0.5151	8.9258
-0.5312	0.5234	7.7294
-0.8650	1.2144	9.4959
-1.2772	-0.3876	8.4287
-1.3531	1.3663	9.2321
-0.5641	0.4702	8.2624
-0.2949	0.7436	9.5222
-0.2668	0.2572	8.9820
-0.4379	1.1115	10.1006
-0.2273	0.5988	9.1860
-0.3924	0.2243	9.7986
-0.3715	0.4265	8.3940
-0.4612	0.2991	9.8225
-0.1908	0.7149	7.4285
-0.0245	0.2853	9.8871
-0.3535	0.4672	7.8999
-0.0867	0.3565	9.0041
-0.6485	0.8315	7.8711
0.2752	-0.2237	8.2648
-0.6969	0.2722	8.9772
-0.5701	0.6377	6.9415
0.0120	0.2183	9.2183
0.1424	0.2632	6.7914
0.0550	1.0116	9.5748
-0.4732	-0.3320	7.7671
-0.3212	0.6496	8.8965
-0.4187	-0.0281	8.4717
-0.2118	0.4630	9.2452
-0.8925	0.2847	9.3260
-0.6461	0.5575	8.7302
-0.4552	1.4411	10.2047
-0.4953	0.2614	8.8055
-0.6736	1.6863	10.2975
-0.3302	0.0287	9.4917
-0.3212	1.2215	10.5601
-1.0893	1.1462	9.2668
-0.8453	1.0600	10.1042
-0.5785	0.5115	9.1501
-0.2764	0.7202	10.2640
-0.2620	0.8225	8.5519
-0.2578	0.3314	10.0468
-0.4648	0.8584	9.2368
-0.9320	-0.0497	9.8805
-1.0385	1.4375	9.3625
-0.6299	0.5880	8.7338
-0.2608	0.9906	9.0783
-0.4032	0.4080	8.2307
-0.0030	0.9051	9.9822
-0.6036	0.4134	7.4811
-0.6365	0.7747	10.2059
-1.0827	1.0098	7.6384
-0.6951	0.8536	9.0029
-0.4020	0.7813	7.3956
0.0323	-0.2142	7.7838
-0.9075	0.6820	8.8678
0.1101	-0.1047	8.3988
-0.7190	-0.0562	9.7938
-0.0395	0.1735	7.9986
-0.7561	1.4465	9.2410
-1.1121	0.8560	7.4034
-0.5491	1.4016	9.7028
-0.8321	-0.0658	7.6151
-0.3021	0.4498	9.8225
-0.5791	-0.0006	8.0327
-0.0132	0.2979	9.3972
-0.8847	0.5647	8.6793
-0.3236	0.9129	8.0847
-1.1390	1.4997	8.4717
0.0341	-0.2584	8.2241
-0.7549	1.4710	9.5778
0.2160	-0.4714	7.8299
-0.2572	1.1928	10.0133
-0.8321	0.9254	7.6055
0.5378	1.2987	9.2967
0.4582	0.5222	7.6307
0.6102	0.1872	9.2153
1.0020	0.0036	7.5828
0.2668	-0.2171	9.0167
-0.6550	1.0636	8.5489
-0.7555	0.5976	7.9232
-1.5200	1.7904	9.1992
-0.5701	0.3990	8.0554
-0.6233	0.6383	9.6544
0.2369	-0.2632	7.0307
0.1053	0.3063	9.1423
-0.8010	1.1162	7.9423
-1.8251	1.6690	9.6346
-1.2903	1.5284	6.9852
-1.0929	1.2401	8.5926
-0.7484	0.3488	8.3048
-0.0359	0.5988	8.4071
-1.7779	0.5342	9.1423
-0.2584	0.7705	8.1368
-0.9607	1.3220	9.3314
-0.6042	0.6658	7.0301
-0.5450	0.9565	9.7483
0.6951	-0.0700	7.6295
0.2991	0.3141	9.4995
-0.1184	-0.3918	8.4430
-0.8100	0.4205	10.2412
-0.9966	0.9063	8.3114
0.4433	0.5055	8.7894
-0.4684	0.3176	9.0023
0.1238	-0.4241	7.9429
0.1352	0.5294	9.0305
0.0455	-0.4857	8.4891
-0.3745	0.7513	9.8237
-0.8806	0.4959	7.7132
-0.2716	1.3681	9.7573
0.2393	0.5486	7.3878
-0.0365	0.3368	9.4271
0.2506	0.4881	8.0404
0.0126	-0.0012	8.9042
-0.8297	0.9565	8.9210
-0.3757	0.4744	8.6889
-0.3715	1.2383	9.3248
-0.5109	-0.2339	7.5822
-0.2829	0.9846	9.1011
-0.4211	1.0618	6.8739
-0.9697	0.9129	9.5353
-1.0714	1.2915	6.7974
-0.9817	0.5982	8.9210
-0.4642	1.0283	6.9463
0.4044	-0.0676	8.3084
-0.7854	0.2907	9.2973
-0.5844	0.9739	7.9465
-1.2036	0.9637	9.0299
-0.8124	0.9703	7.7120
-0.5474	0.8004	10.2789
-0.4277	0.4594	7.5415
0.4522	0.4510	9.4546
-0.1184	-0.2847	7.2909
0.0132	0.5647	9.3439
-0.4941	0.1759	8.0937
-0.4816	0.7795	8.2486
-0.9577	0.9894	9.3379
0.1442	-0.4277	7.3531
-0.1938	0.9691	9.3780
-1.0839	0.2136	7.3830
-0.8171	1.5200	9.4863
-0.5958	0.8542	7.6277
-0.1669	1.1186	9.4869
-0.1232	0.7238	7.9585
0.1878	-0.3057	9.2524
-0.2273	0.7807	8.4909
-0.2758	0.4199	9.6999
-0.9254	1.1844	9.5168
0.1400	-0.2064	8.4053
0.3565	0.6873	10.1389
0.3972	-0.2118	7.3818
-0.0162	0.3464	10.0271
-0.2584	1.0469	7.3633
-0.6688	0.4576	9.4600
-0.4217	1.0068	8.0985
0.1011	0.0036	9.0807
-0.2913	0.2160	8.6781
-0.0203	0.9302	8.6632
-0.6461	0.6437	9.4031
0.1370	0.2225	7.8777
0.4116	0.6024	9.9529
-0.3691	-0.3159	7.4626
-0.1771	0.5426	9.7046
-0.5826	0.1226	7.3932
-0.0359	1.0798	9.6586
-0.5468	0.2118	8.5298
0.1507	0.1537	9.0424
0.0957	0.8835	9.9804
-0.0425	-0.5127	8.5800
0.0329	0.8943	10.5619
-0.6048	-0.1071	7.9956
-0.3027	0.2255	9.8931
0.1430	0.2171	8.4203
-0.5180	-0.3314	9.1998
-1.1468	1.0265	9.0646
-1.1234	0.8375	9.0897
-0.9769	1.3795	9.5820
-0.5288	0.0580	8.9659
-0.0311	0.3476	10.2975
-0.5192	-0.0981	7.8113
-0.4504	0.9003	9.7854
-0.3529	0.6443	8.3491
-0.2818	-0.1274	9.7926
0.3386	0.1071	9.4678
0.2662	0.3075	9.6508
-0.3846	0.7507	10.1288
-0.4331	0.6646	9.5336
0.3428	0.6969	9.1142
0.2704	-0.1783	8.5435
0.3404	0.3942	10.1162
-0.4229	0.5390	7.6325
0.0694	1.1276	10.3010
-0.4917	0.2620	7.7820
-0.1190	0.1807	8.6877
-0.2279	0.7980	8.4047
-0.5037	-0.0796	7.5661
-0.4540	1.2562	10.2699
-1.5559	0.0036	7.6749
-0.4863	0.7065	9.6598
-0.4570	0.5192	8.0219
-0.3248	-0.2800	9.8715
-0.2100	1.1378	9.7022
-1.1820	0.7645	9.0963
-0.8937	1.0863	9.9481
-0.7035	0.1262	9.0592
0.0215	0.2321	9.5659
0.1137	0.8249	9.1130
-0.3368	0.7047	10.1240
-1.1719	0.3003	8.4795
-0.2034	0.6072	10.4303
-0.3811	0.0945	8.2337
0.1537	0.4720	9.8159
-0.4516	0.7119	8.8014
-0.5491	0.2124	8.2426
-0.2949	1.2658	9.3846
0.2788	0.1226	7.7204
0.5474	-0.0096	9.8620
0.2381	-0.4684	7.2287
-0.0341	0.4074	10.2478
-0.1920	0.4792	7.8807
-0.4307	0.7549	8.8366
-0.4606	0.7813	9.6538
-0.3141	-0.1663	7.9423
-0.3476	0.5073	9.8590
-0.8668	0.5067	8.5292
-0.4032	0.9984	9.9936
-0.6431	0.5240	8.7696
-0.4475	-0.1083	9.5545
-0.1663	0.1980	9.4043
-0.3344	0.3170	10.0683
-0.7358	0.5641	8.6955
-0.5007	0.8943	9.8165
-0.2369	0.5162	9.3798
0.0138	-0.1908	8.9216
-0.3529	1.3705	10.7383
-0.9374	0.7591	7.3938
-0.7621	1.0893	10.1174
-0.9870	1.0265	7.6821
-0.2602	0.1974	9.2075
-0.4319	1.2987	9.2584
0.2560	0.1166	8.6446
-0.7250	0.9918	9.8691
-0.4271	0.3428	7.8227
-0.0102	0.4373	9.9110
-0.0514	0.4911	8.3982
-0.0096	0.4277	9.8871
-0.7352	0.7807	8.8313
-0.6808	1.5254	9.5300
-1.0235	0.5623	8.8851
-0.0652	-0.0311	9.4540
-0.0108	0.7089	9.9128
-1.1952	0.5151	9.4247
-1.0253	1.6887	10.3268
-1.3549	1.0319	8.4370
-0.1555	0.3296	10.5367
0.4140	-0.1777	8.3844
0.2692	-0.2584	10.0785
-0.4792	1.0241	8.7691
-0.3362	0.6706	8.5100
-0.3045	0.9547	8.7846
-0.1388	-0.2495	7.4650
-0.3523	0.9081	9.6466
-0.7047	1.0116	6.7382
-0.6843	1.1192	9.0885
-0.3769	0.9972	7.5380
-0.4666	0.3206	8.0961
-0.6873	0.6389	9.2709
-0.6502	0.5785	8.5076
-0.7113	0.9027	9.6287
-0.6742	1.1916	9.4875
-0.3057	0.5192	9.8709
-0.1830	-0.2423	8.5058
0.0018	0.7424	10.6277
-0.7519	0.7131	7.9986
-0.2219	1.1031	9.7351
-0.2979	0.8746	9.0568
-0.5115	-0.0371	8.6231
-0.2351	0.9715	9.4498
-0.8094	0.7513	7.7168
-0.8303	1.3669	10.4045
-0.8285	0.8393	7.4973
-0.4642	0.4995	9.7854
-0.5073	0.6311	8.6141
-0.4427	0.5342	8.3683
-0.4104	0.8524	9.4229
-0.1819	-0.3206	7.8347
0.0969	0.5725	9.9517
-0.3751	0.0162	8.7685
-0.1507	0.2728	10.2861
-0.7268	0.3242	8.0907
-0.1944	0.6024	9.7639
-0.1735	0.2734	8.5352
0.1370	-0.3715	9.4600
-0.2495	1.0486	9.9403
-0.6658	0.3769	8.1284
-0.9559	0.9392	10.3776
-0.8967	0.6108	7.6462
-0.3224	0.4104	10.1838
-0.7597	0.5809	8.4735
-0.5797	0.4971	8.9013
-1.0469	0.9254	8.9234
-0.6311	0.4720	7.7892
-0.1860	0.6993	9.7130
-0.6443	0.0413	8.3156
-0.3194	0.7549	9.5575
-0.9559	0.9757	8.7685
-0.5390	0.1358	8.8384
-0.2351	0.5832	9.3009
-0.8201	0.2136	9.8985
-0.8195	1.2425	9.4755
-0.5826	0.8327	9.1740
0.0544	0.4367	10.0737
0.0939	0.0395	8.3527
0.1370	-0.0006	10.7533
-0.3290	0.5168	8.5507
-0.2572	0.8626	9.2859
-0.4223	0.7424	9.7369
-0.1657	0.1807	7.8071
-0.3075	0.4307	10.1838
-0.4313	0.3093	7.8496
0.0688	0.4708	9.4085
0.0347	0.4851	9.9894
-0.1478	-0.1017	8.3832
-0.6873	1.4417	10.0654
-0.8554	0.2046	9.1627
-0.6514	1.1874	9.7208
-0.7244	0.9960	10.0959
-0.0837	-0.1316	9.8793
-0.3649	1.2837	9.7998
-0.6754	0.1382	10.3148
-0.9135	1.3029	9.6717
0.0311	0.5061	9.5377
-0.1908	-0.1807	10.8137
-0.3870	0.4283	9.1579
-0.7149	0.5611	10.8951
-0.1166	0.1974	8.4735
0.1406	0.6634	9.9140
0.1944	-0.1854	10.0097
-0.3254	0.3141	8.7134
-0.1310	0.8237	10.5661
-0.8530	0.3398	8.8504
-0.4068	0.5204	9.9858
-0.3697	0.6921	10.1551
-1.1426	0.2112	9.5940
-0.1119	0.9751	9.5599
-0.4391	0.1017	9.7962
0.1723	-0.1980	9.9074
0.0036	1.2257	9.3086
-1.0355	0.3571	10.2502
-0.0694	0.5486	9.3906
-0.5396	0.8638	9.8554
-0.7759	-0.2327	10.4428
-0.4122	1.2383	8.6680
-1.4124	0.6861	10.3399
-0.0832	-0.0407	9.0795
0.0592	0.7902	9.1657
-1.0235	0.2136	10.4967
-0.1017	0.0520	9.0161
-0.0622	0.4618	10.4566
-1.0211	0.3511	10.7593
-0.1992	0.3817	9.4827
-0.2746	1.1049	9.8099
-0.6927	0.2363	10.1120
0.1507	0.2393	9.7387
-0.5348	1.4124	9.6311
-1.4130	0.7771	9.4857
-0.8189	1.1103	9.0777
-0.2225	0.5354	9.6478
-0.1250	-0.0927	9.8697
-1.0654	1.7683	8.4532
-0.7908	0.8357	10.0366
0.2871	-0.2160	9.2482
-0.3242	1.3196	8.5968
-0.4750	0.5037	9.2715
-0.7011	0.7872	8.6536
-0.4427	0.9852	9.3690
0.5121	-0.4714	9.9158
0.8159	-0.4768	7.9950
0.3924	0.1328	9.3290
-0.2638	0.1358	9.2351
-0.8004	0.4074	8.9706
-1.2072	1.2736	10.4494
-0.9613	0.5097	10.3663
-0.6999	0.2381	10.4159
-0.2297	1.2383	9.8793
0.7956	-0.7418	10.0761
0.8315	-0.5043	9.6550
0.6461	0.6730	8.7876
0.4487	-1.0546	9.6125
0.8309	-0.0766	8.8109
-0.1537	1.2275	8.2618
-0.9607	0.2243	9.1645
-0.5468	1.2688	8.2187
-0.6215	0.9009	8.9383
-0.8225	0.2040	8.9413
-0.0132	0.5958	8.0757
-0.4487	0.5503	9.2787
-1.0504	0.4427	8.7254
0.0485	0.4786	8.2857
0.2907	0.2829	8.8600
-0.4642	0.7513	9.0610
-0.3882	0.2447	8.8307
0.4325	0.5282	9.0239
0.6401	0.0999	9.9984
-0.2859	-0.0389	9.6544
-0.3266	0.9505	9.6305
0.1119	0.0969	10.2251
0.0748	0.2973	9.2452
-0.4672	1.7462	8.9348
-0.8369	0.2530	10.5206
-0.2901	0.0036	9.5353
-0.5414	1.1557	9.0939
-0.5767	-0.0233	10.4715
-0.5486	0.2949	9.2004
-1.0606	1.6690	8.6721
-1.1055	0.3374	10.5260
-0.6239	0.3093	10.1006
-0.5755	0.7872	9.7453
0.1854	0.3332	9.9924
0.1501	-0.0562	9.7854
-0.2142	-0.0568	9.5186
0.1394	1.1282	9.1998
-0.1555	0.1621	9.6329
-0.5396	-0.7232	9.2913
-0.5521	1.6959	8.8444
-0.5007	0.6227	9.4893
-1.2245	-0.1125	9.2919
-1.3316	2.6901	8.8971
-0.9565	1.5099	9.5497
-1.3059	0.5192	9.4624
-1.9753	2.8965	8.1978
-1.7025	2.5968	8.7691
-1.0804	0.7986	8.8289
-0.6676	2.0632	7.9256
-0.1561	1.3442	8.8983
-0.6945	0.5216	8.9880
-0.0682	0.3637	8.6500
-0.2303	0.7854	9.0185
-1.0068	1.3890	8.5232
-0.2524	0.0814	9.8303
-0.1663	0.4534	9.9816
-0.5318	1.3280	8.5178
-0.5168	0.6138	10.4338
-0.2118	0.3260	10.1096
-0.9206	1.6145	8.9808
-0.4780	0.4798	10.0055
0.2130	-0.6203	10.2849
-0.0203	1.2520	8.9007
-0.3930	1.0839	9.4648
0.0078	-0.2160	9.3768
-0.1777	0.7729	10.0851
-0.2333	0.5228	9.3613
0.1178	-0.4277	10.2921
0.4600	0.1501	10.0366
-0.3087	0.2471	9.6801
0.1549	0.4780	10.0959
0.2070	0.3619	9.7214
0.2441	-0.6114	9.3589
0.2130	0.5462	9.8709
-0.8345	1.7593	9.3403
-0.6425	-0.1944	9.7453
0.2524	0.4445	9.2566
-0.8058	2.0267	8.9348
-0.7053	0.2919	9.7531
-0.2495	-0.8118	9.4923
-0.7190	2.1416	8.7972
-0.3141	1.3519	9.4660
-0.2847	-1.0558	9.4797
0.0389	0.8148	9.7351
-0.3290	0.8991	9.3248
-0.5623	-0.1059	9.9990
0.0203	0.6915	10.0815
-0.1466	0.8124	9.4510
-0.1543	0.2435	9.6933
-0.6825	0.3458	9.6538
0.3129	0.2907	9.6999
0.3757	-0.0197	9.3296
-0.8758	1.2921	9.0376
-0.6114	0.8297	9.9948
-0.0598	-0.9212	9.4624
-0.4905	0.6449	8.7972
-0.9284	1.1109	10.2233
-0.6969	-0.1771	9.4971
-0.9482	0.4056	9.1507
-0.7370	1.4261	9.5174
-0.6407	0.5264	10.4362
-0.2387	-0.1310	9.6825
-0.9081	1.5769	9.7734
-0.0993	1.1503	10.2981
-1.0552	0.7017	8.8426
-0.8327	0.9422	9.3116
-0.3063	0.3326	10.0564
-0.2453	-0.4630	9.9433
-1.1318	1.2598	9.0693
-1.1904	1.0385	9.9846
-0.1519	-0.0245	9.7453
-0.1543	0.6742	9.0693
-0.4510	1.4423	10.0797
-0.2046	-0.1633	9.9062
-0.1113	0.1113	9.3110
-0.8608	1.7276	9.5216
-0.7214	0.7095	9.8554
-0.4074	-0.2746	8.8881
-0.6867	0.9894	8.8719
-0.3649	1.3125	10.2346
0.0849	-0.4606	9.5001
-0.4899	0.5545	9.1968
-0.3799	1.3472	9.5856
-0.2423	0.5067	9.5150
-0.5151	-0.5294	9.3284
-0.6485	0.8764	9.8560
-0.0957	0.9380	9.7950
-0.2130	0.1777	9.3643
-0.7585	-0.1202	9.7609
-0.5629	0.7400	10.1700
-0.4223	0.6287	9.5641
-0.4684	0.4068	9.4289
-0.3314	0.1352	9.9619
-0.3194	0.4911	9.7752
-0.3787	0.8949	9.4486
-0.4229	0.5162	9.6526
-0.5952	-0.0305	9.6568
-0.3254	0.7579	9.7411
-0.3093	1.0247	9.4947
-0.2524	0.5246	10.1425
-0.7382	-0.1095	9.4163
-0.5641	0.7047	9.7555
-0.2207	1.0481	9.5808
-0.6227	0.3141	9.7950
-0.5551	0.2387	9.9726
-0.4385	0.5462	9.4295
-0.1418	0.6724	9.8506
-0.2991	0.4881	9.5563
-0.5306	0.3858	9.6646
-0.6574	0.5414	9.8410
-0.4744	0.5850	9.4839
-0.3577	0.8076	9.7363
-0.4510	0.5934	9.6023
-0.5587	0.2871	9.5605
-0.4935	0.7119	9.7926
-0.4247	0.4929	9.3589
-0.3464	0.7549	9.7902
-0.5569	0.3900	9.4217
-0.3386	0.6461	9.7770
-0.4409	0.9452	9.4689
-0.6185	0.5438	9.4761
-0.2363	0.5940	9.9308
-0.3834	0.1436	9.1477
-0.3422	0.7400	9.9212
-0.2943	0.6185	9.4791
-0.5139	0.4032	9.2823
-0.3194	0.7585	10.0055
-0.3619	0.1657	9.1363
-0.5091	0.6790	9.7268
-0.2100	0.6437	9.6484
-0.3164	0.1998	9.2201
-0.2698	0.7196	10.0695
-0.3745	0.2506	9.5694
-0.5031	0.2674	9.3266
-0.1884	0.6233	10.0899
-0.3440	0.2303	9.0855
-0.2716	0.7489	9.7202
-0.1406	0.4265	9.8458
-0.4235	0.0981	9.2033
-0.4056	0.6837	9.9182
-0.2632	0.4122	9.6915
-0.3751	0.6688	9.3332
-0.2841	0.7358	9.8368
-0.1603	0.2189	9.5222
-0.3332	0.6395	9.4516
-0.3416	0.4905	9.6508
-0.1938	0.5085	9.5270
-0.2746	0.7226	9.5461
-0.3673	0.3613	9.7758
-0.2578	0.5641	9.5216
-0.4869	0.6413	9.6095
-0.5342	0.4098	9.6275
-0.2985	0.5342	9.5766
-0.3135	0.5976	9.6203
-0.1908	0.3811	9.6825
-0.2219	0.4804	9.7118
-0.4427	0.4941	9.5491
-0.5533	0.3248	9.6400
-0.3984	0.4546	9.7453
-0.4175	0.7095	9.6454
-0.5611	0.6849	9.5407
-0.4259	0.4923	9.8010
-0.3380	0.5641	9.5174
-0.5826	0.7137	9.4492
-0.5970	0.5360	9.7238
-0.3266	0.5186	9.7011
-0.3338	0.7830	9.5389
-0.4654	0.4415	9.7052
-0.3218	0.3912	9.7070
-0.4068	0.6502	9.5892
-0.3494	0.5139	9.7399
-0.3631	0.3494	9.7268
-0.3326	0.6006	9.6275
-0.2973	0.5671	9.7304
-0.3176	0.3482	9.5820
-0.5151	0.6030	9.7680
-0.1986	0.4534	9.5557
-0.3942	0.7346	9.6275
-0.5198	0.4116	9.8685
-0.1693	0.3434	9.6143
-0.3541	0.6981	9.4612
-0.6048	0.5204	9.8865
-0.4152	0.3099	9.7788
-0.0843	0.4325	9.5204
-0.0748	0.5408	9.3511
-0.4373	0.6407	9.4354
-0.7621	0.7466	9.6161
-0.7585	0.8841	9.7633
-0.8177	0.8309	10.0797
-0.7711	0.4504	10.1958
-0.5976	0.4271	10.3657
-0.4947	0.6431	10.1850
-0.5689	0.4457	10.3112
-0.7166	0.3619	10.4464
-0.6203	0.5874	10.2628
-0.5773	0.6939	10.2693
-0.6796	0.6855	10.0079
-0.7424	0.5862	9.7034
-0.5246	0.5468	9.6323
-0.3703	0.6556	9.6203
-0.6550	0.5922	9.9487
-0.7537	0.4732	9.7154
-0.5139	0.6598	9.6939
-0.3990	0.7519	9.7878
-0.5922	0.7286	9.7058
-0.5898	0.5982	9.6335
-0.4887	0.5605	9.7238
-0.4845	0.7645	9.6191
-0.5025	0.4857	9.5682
-0.4887	0.3494	9.6131
-0.3589	0.4618	9.5796
-0.3607	0.5856	9.5832
-0.3440	0.4941	9.5605
-0.3374	0.3817	9.6203
-0.2524	0.3918	9.6514
-0.2554	0.5336	9.6460
-0.3476	0.4881	9.5886
-0.4409	0.3840	9.7100
-0.3739	0.5725	9.5820
-0.3601	0.6000	9.6257
-0.4576	0.5761	9.6568
-0.5049	0.6060	9.5778
-0.5462	0.6957	9.6640
-0.4672	0.6096	9.6550
-0.5079	0.6060	9.5048
-0.4953	0.5168	9.6364
-0.4720	0.5916	9.6699
-0.3147	0.6090	9.5868
-0.4253	0.4367	9.7220
-0.4732	0.5240	9.6329
-0.4397	0.5946	9.6143
-0.4253	0.5557	9.7178
-0.4756	0.5683	9.5736
-0.4983	0.5868	9.6544
-0.4152	0.5515	9.6149
-0.4385	0.6293	9.6245
-0.4845	0.5575	9.6113
-0.4935	0.5581	9.5982
-0.4098	0.6748	9.6006
-0.4122	0.5856	9.6095
-0.4289	0.5713	9.6484
-0.5115	0.5611	9.5605
-0.4570	0.5264	9.6891
-0.4134	0.6353	9.6370
