accelx	accely	accelz
0.9236	0.6664	9.5874
0.9242	0.6664	9.5862
0.9242	0.6670	9.5868
0.9230	0.6664	9.5862
0.9230	0.6670	9.5868
0.9230	0.6670	9.5874
0.9230	0.6670	9.5880
0.9236	0.6670	9.5880
0.9242	0.6664	9.5868
0.9236	0.6670	9.5874
0.9236	0.6670	9.5880
0.9236	0.6670	9.5886
0.9242	0.6670	9.5886
0.9242	0.6676	9.5892
0.9242	0.6676	9.5886
0.9248	0.6676	9.5886
0.9248	0.6670	9.5880
0.9254	0.6664	9.5874
0.9260	0.6658	9.5880
0.9254	0.6658	9.5868
0.9254	0.6664	9.5880
0.9254	0.6676	9.5892
0.9254	0.6670	9.5886
0.9260	0.6676	9.5880
0.9254	0.6676	9.5868
0.9254	0.6670	9.5868
0.9248	0.6670	9.5874
0.9248	0.6670	9.5874
0.9254	0.6670	9.5874
0.9254	0.6670	9.5856
0.9260	0.6664	9.5862
0.9254	0.6664	9.5862
0.9248	0.6664	9.5856
0.9242	0.6664	9.5862
0.9248	0.6664	9.5862
0.9248	0.6658	9.5862
0.9248	0.6658	9.5856
0.9254	0.6646	9.5868
0.9254	0.6646	9.5868
0.9248	0.6646	9.5868
0.9242	0.6640	9.5862
0.9242	0.6640	9.5868
0.9236	0.6646	9.5862
0.9236	0.6646	9.5868
0.9236	0.6640	9.5868
0.9242	0.6646	9.5868
0.9230	0.6646	9.5874
0.9242	0.6640	9.5874
0.9242	0.6640	9.5880
0.9242	0.6640	9.5880
0.9248	0.6646	9.5874
0.9242	0.6646	9.5874
0.9242	0.6640	9.5868
0.9242	0.6640	9.5856
0.9242	0.6640	9.5856
0.9242	0.6640	9.5850
0.9242	0.6640	9.5850
0.9236	0.6640	9.5856
0.9242	0.6634	9.5862
0.9248	0.6634	9.5868
0.9260	0.6634	9.5880
0.9260	0.6640	9.5868
0.9254	0.6646	9.5874
0.9254	0.6652	9.5868
0.9248	0.6646	9.5862
0.9254	0.6646	9.5856
0.9248	0.6658	9.5862
0.9248	0.6652	9.5850
0.9242	0.6652	9.5862
0.9242	0.6646	9.5868
0.9242	0.6646	9.5880
0.9248	0.6646	9.5874
0.9248	0.6652	9.5880
0.9248	0.6652	9.5874
0.9254	0.6652	9.5874
0.9260	0.6652	9.5874
0.9254	0.6646	9.5892
0.9260	0.6646	9.5886
0.9254	0.6652	9.5892
0.9254	0.6658	9.5886
0.9254	0.6658	9.5880
0.9260	0.6664	9.5886
0.9260	0.6658	9.5892
0.9260	0.6652	9.5874
0.9248	0.6652	9.5880
0.9242	0.6652	9.5886
0.9248	0.6658	9.5892
0.9248	0.6658	9.5892
0.9242	0.6658	9.5892
0.9236	0.6652	9.5904
0.9242	0.6652	9.5898
0.9242	0.6652	9.5904
0.9242	0.6658	9.5910
0.9242	0.6652	9.5916
0.9242	0.6658	9.5928
0.9254	0.6664	9.5916
0.9254	0.6664	9.5916
0.9254	0.6658	9.5904
0.9254	0.6658	9.5904
0.9242	0.6652	9.5898
0.9248	0.6658	9.5892
0.9254	0.6658	9.5892
0.9254	0.6658	9.5892
0.9242	0.6658	9.5892
0.9236	0.6658	9.5898
0.9236	0.6658	9.5898
0.9236	0.6658	9.5898
0.9242	0.6658	9.5904
0.9254	0.6664	9.5898
0.9260	0.6664	9.5886
0.9266	0.6664	9.5880
0.9266	0.6664	9.5880
0.9260	0.6658	9.5868
0.9266	0.6652	9.5868
0.9266	0.6652	9.5862
0.9260	0.6652	9.5856
0.9260	0.6652	9.5868
0.9260	0.6646	9.5886
0.9260	0.6652	9.5886
0.9254	0.6646	9.5874
0.9248	0.6646	9.5868
0.9242	0.6646	9.5874
0.9236	0.6652	9.5874
0.9236	0.6652	9.5874
0.9224	0.6652	9.5868
0.9224	0.6658	9.5874
0.9218	0.6658	9.5874
0.9236	0.6664	9.5868
0.9236	0.6664	9.5874
0.9242	0.6664	9.5874
0.9254	0.6664	9.5880
0.9254	0.6664	9.5886
0.9260	0.6658	9.5880
0.9254	0.6664	9.5874
0.9266	0.6658	9.5874
0.9260	0.6652	9.5874
0.9248	0.6652	9.5868
0.9242	0.6652	9.5868
0.9242	0.6652	9.5856
0.9242	0.6646	9.5856
0.9236	0.6652	9.5850
0.9242	0.6652	9.5844
0.9236	0.6658	9.5838
0.9236	0.6658	9.5844
0.9242	0.6652	9.5850
0.9242	0.6652	9.5850
0.9236	0.6652	9.5850
0.9242	0.6646	9.5850
0.9242	0.6640	9.5862
0.9236	0.6646	9.5868
0.9236	0.6646	9.5874
0.9236	0.6646	9.5874
0.9236	0.6652	9.5862
0.9242	0.6658	9.5868
0.9242	0.6652	9.5862
0.9248	0.6646	9.5868
0.9248	0.6646	9.5868
0.9242	0.6646	9.5868
0.9242	0.6646	9.5874
0.9236	0.6640	9.5880
0.9236	0.6646	9.5880
0.9242	0.6640	9.5874
0.9236	0.6646	9.5880
0.9236	0.6646	9.5874
0.9236	0.6652	9.5874
0.9248	0.6640	9.5880
0.9248	0.6640	9.5868
0.9254	0.6634	9.5880
0.9254	0.6634	9.5880
0.9254	0.6628	9.5874
0.9248	0.6628	9.5868
0.9248	0.6634	9.5880
0.9248	0.6640	9.5868
0.9254	0.6634	9.5868
0.9254	0.6634	9.5868
0.9254	0.6628	9.5856
0.9254	0.6634	9.5856
0.9260	0.6634	9.5862
0.9254	0.6634	9.5862
0.9248	0.6628	9.5856
0.9248	0.6634	9.5862
0.9248	0.6634	9.5868
0.9266	0.6634	9.5880
0.9260	0.6634	9.5874
0.9260	0.6634	9.5862
0.9248	0.6634	9.5862
0.9248	0.6640	9.5862
0.9254	0.6640	9.5862
0.9266	0.6646	9.5862
0.9260	0.6652	9.5862
0.9254	0.6646	9.5862
0.9248	0.6652	9.5856
0.9242	0.6652	9.5850
0.9248	0.6652	9.5856
0.9254	0.6658	9.5868
0.9260	0.6658	9.5868
0.9254	0.6652	9.5868
0.9260	0.6658	9.5874
0.9266	0.6658	9.5868
0.9272	0.6658	9.5856
0.9272	0.6658	9.5856
0.9260	0.6664	9.5856
0.9254	0.6652	9.5850
0.9260	0.6646	9.5856
0.9266	0.6640	9.5856
0.9254	0.6646	9.5856
0.9254	0.6652	9.5850
0.9254	0.6652	9.5856
0.9266	0.6652	9.5868
0.9260	0.6652	9.5868
0.9266	0.6652	9.5868
0.9266	0.6652	9.5868
0.9266	0.6652	9.5874
0.9260	0.6652	9.5880
0.9266	0.6646	9.5880
0.9260	0.6646	9.5886
0.9254	0.6646	9.5886
0.9260	0.6640	9.5886
0.9260	0.6646	9.5892
0.9260	0.6652	9.5892
0.9260	0.6652	9.5892
0.9266	0.6652	9.5892
0.9266	0.6652	9.5880
0.9260	0.6652	9.5880
0.9254	0.6652	9.5874
0.9260	0.6646	9.5874
0.9248	0.6652	9.5886
0.9242	0.6646	9.5886
0.9242	0.6646	9.5886
0.9248	0.6652	9.5886
0.9248	0.6652	9.5892
0.9254	0.6646	9.5892
0.9254	0.6646	9.5898
0.9254	0.6646	9.5892
0.9260	0.6646	9.5892
0.9254	0.6640	9.5904
0.9248	0.6634	9.5898
0.9254	0.6634	9.5892
0.9254	0.6640	9.5910
0.9254	0.6634	9.5910
0.9254	0.6628	9.5910
0.9260	0.6634	9.5910
0.9260	0.6628	9.5904
0.9266	0.6628	9.5892
0.9260	0.6634	9.5886
0.9254	0.6634	9.5886
0.9254	0.6634	9.5886
0.9254	0.6640	9.5892
0.9260	0.6646	9.5886
0.9260	0.6646	9.5886
0.9266	0.6640	9.5874
0.9278	0.6646	9.5874
0.9278	0.6640	9.5892
0.9278	0.6640	9.5886
0.9278	0.6634	9.5892
0.9278	0.6646	9.5886
0.9272	0.6646	9.5886
0.9272	0.6634	9.5886
0.9260	0.6640	9.5886
0.9260	0.6640	9.5892
0.9254	0.6640	9.5892
0.9254	0.6640	9.5874
0.9260	0.6646	9.5886
0.9260	0.6646	9.5886
0.9254	0.6646	9.5880
0.9254	0.6646	9.5880
0.9260	0.6646	9.5874
0.9260	0.6646	9.5874
0.9260	0.6646	9.5880
0.9254	0.6646	9.5880
0.9254	0.6646	9.5886
0.9254	0.6652	9.5880
0.9254	0.6646	9.5874
0.9242	0.6646	9.5880
0.9242	0.6646	9.5874
0.9248	0.6646	9.5868
0.9248	0.6640	9.5862
0.9236	0.6640	9.5862
0.9242	0.6634	9.5862
0.9236	0.6634	9.5862
0.9236	0.6640	9.5856
0.9242	0.6634	9.5856
0.9248	0.6640	9.5856
0.9248	0.6652	9.5856
0.9242	0.6658	9.5850
0.9242	0.6658	9.5844
0.9242	0.6658	9.5844
0.9248	0.6652	9.5844
0.9248	0.6652	9.5850
0.9242	0.6652	9.5850
0.9272	0.6670	9.5886
0.9248	0.6664	9.5778
0.9338	0.6634	9.5820
0.9236	0.6586	9.5850
0.9147	0.6718	9.5910
0.9314	0.6562	9.5671
0.9200	0.6598	9.6155
0.9099	0.6628	9.5766
0.9284	0.6652	9.5802
0.9176	0.6622	9.6161
0.9224	0.6724	9.5533
0.9194	0.6706	9.5838
0.9194	0.6562	9.5976
0.9200	0.6712	9.5599
0.9446	0.6586	9.5934
0.9158	0.6616	9.6161
0.9422	0.6670	9.5599
0.9368	0.6628	9.6017
0.9230	0.6538	9.6041
0.9230	0.6790	9.5599
0.9356	0.6658	9.5844
0.9218	0.6532	9.5958
0.9356	0.6730	9.5617
0.9290	0.6700	9.5898
0.9206	0.6485	9.5964
0.9123	0.6820	9.5665
0.9260	0.6622	9.5952
0.9045	0.6622	9.6065
0.9176	0.6676	9.5868
0.9308	0.6646	9.5862
0.9051	0.6766	9.5958
0.9284	0.6682	9.5754
0.7729	0.6670	9.5880
0.9033	0.6616	9.5970
0.9326	0.6736	9.5617
0.9188	0.6676	9.5982
0.9368	0.6496	9.6006
0.9368	0.6652	9.5820
0.9290	0.6664	9.5910
0.9272	0.6802	9.5784
0.9416	0.6688	9.5934
0.9374	0.6496	9.5856
0.9368	0.6790	9.5712
0.9374	0.6634	9.5796
0.9218	0.6640	9.5826
0.9230	0.6550	9.5688
0.9266	0.6604	9.5838
0.9164	0.6622	9.5826
0.9284	0.6730	9.5802
0.9206	0.6592	9.5898
0.9290	0.6640	9.5784
0.9248	0.6688	9.5706
0.9254	0.6676	9.5880
0.9260	0.6658	9.5724
0.9248	0.6730	9.5473
0.9302	0.6407	9.5778
0.9290	0.6742	9.5802
0.9416	0.6437	9.5742
0.9218	0.6514	9.6029
0.9117	0.6544	9.5832
0.9248	0.6574	9.5629
0.9266	0.6556	9.6012
0.9230	0.6520	9.5856
0.9296	0.6461	9.5712
0.9194	0.6496	9.5898
0.9248	0.6467	9.5832
0.9278	0.6592	9.5814
0.9242	0.6502	9.5898
0.9158	0.6628	9.5778
0.9218	0.6646	9.5682
0.9111	0.6598	9.5952
0.9147	0.6658	9.5886
0.9117	0.6622	9.5826
0.9188	0.6550	9.5946
0.9242	0.6556	9.5886
0.9338	0.6496	9.5688
0.9278	0.6550	9.5808
0.9332	0.6658	9.5736
0.9320	0.6592	9.5820
0.9284	0.6562	9.5844
0.9296	0.6712	9.5868
0.9296	0.6598	9.5790
0.9272	0.6556	9.5874
0.9176	0.6640	9.5653
0.9260	0.6652	9.5647
0.9206	0.6676	9.5718
0.9362	0.6485	9.5772
0.9350	0.6490	9.5910
0.9284	0.6712	9.5820
0.9290	0.6598	9.5653
0.9188	0.6772	9.5730
1.0702	0.6730	9.5700
0.9224	0.6658	9.5748
0.9206	0.6634	9.5880
0.9242	0.6598	9.5862
0.9188	0.6604	9.5754
0.9230	0.6634	9.5706
0.9176	0.6622	9.5718
0.9356	0.6574	9.5778
0.9290	0.6586	9.5826
0.9344	0.6694	9.5742
0.9278	0.6616	9.5856
0.9278	0.6628	9.5814
0.9182	0.6700	9.5820
0.9272	0.6688	9.5796
0.9218	0.6586	9.5682
0.9350	0.6646	9.5808
0.9290	0.6580	9.5832
0.9200	0.6664	9.5850
1.0684	0.6490	9.5868
0.9266	0.6682	9.5874
0.9176	0.6634	9.5748
0.9224	0.6670	9.5832
0.9206	0.6682	9.5856
0.9224	0.6742	9.5898
0.9194	0.6730	9.5760
0.9374	0.6562	9.5892
0.9242	0.6628	9.5844
0.9374	0.6568	9.5832
0.9194	0.6610	9.5874
0.9314	0.6676	9.5814
0.9117	0.6640	9.5784
0.9224	0.6712	9.5814
0.9188	0.6724	9.5736
0.9278	0.6664	9.5898
0.9272	0.6622	9.5826
0.9428	0.6700	9.5814
0.9326	0.6688	9.5964
0.9266	0.6658	9.5862
0.9176	0.6652	9.5952
0.9123	0.6532	9.5970
0.9152	0.6640	9.5976
0.9141	0.6676	9.5976
0.9230	0.6724	9.5850
0.9236	0.6706	9.5868
0.9314	0.6778	9.5982
0.9368	0.6652	9.5952
0.9338	0.6586	9.5850
0.9290	0.6730	9.6017
0.9135	0.6658	9.5916
0.9164	0.6556	9.6006
0.9033	0.6616	9.5904
0.9242	0.6634	9.5850
0.9152	0.6694	9.5778
0.9428	0.6676	9.5946
0.9362	0.6760	9.5874
0.9505	0.6694	9.5820
0.9224	0.6837	9.5934
0.9266	0.6676	9.5820
0.9152	0.6634	9.5922
0.9093	0.6562	9.5904
0.9218	0.6598	9.5784
0.9344	0.6532	9.5790
0.9404	0.6538	9.6012
0.9404	0.6748	9.5814
0.9362	0.6802	9.5970
0.9356	0.6897	9.5958
0.9284	0.6760	9.6029
0.9212	0.6694	9.6000
0.9194	0.6646	9.5934
0.9230	0.6646	9.6006
0.9182	0.6688	9.5964
0.9302	0.6694	9.5910
0.9380	0.6879	9.5922
0.9236	0.7029	9.5874
0.9242	0.6891	9.6017
0.9260	0.6772	9.5868
0.9236	0.6748	9.5868
0.9320	0.6736	9.5844
0.9236	0.6652	9.5934
0.9212	0.6538	9.5922
0.9248	0.6730	9.5880
0.9063	0.6849	9.5922
0.9314	0.6855	9.5814
0.9284	0.6742	9.5994
0.9356	0.6652	9.5808
0.9326	0.6748	9.5934
0.9141	0.6658	9.5814
0.9332	0.6622	9.5886
0.9069	0.6754	9.5934
0.9147	0.6808	9.5946
0.9158	0.6604	9.6047
0.9200	0.6622	9.5958
0.9482	0.6586	9.6047
0.9296	0.6688	9.5886
0.9320	0.6712	9.5898
0.9224	0.6730	9.5904
0.9200	0.6694	9.5880
0.9254	0.6652	9.6006
0.9129	0.6634	9.5964
0.9350	0.6586	9.5772
0.9332	0.6652	9.5916
0.9248	0.6748	9.5928
0.9284	0.6772	9.5892
0.9212	0.6778	9.5802
0.9392	0.6616	9.5886
0.9176	0.6748	9.5928
0.9296	0.6622	9.5694
0.9272	0.6586	9.5796
0.9170	0.6718	9.5736
0.9284	0.6712	9.5742
0.9182	0.6700	9.5635
0.9482	0.6628	9.5629
0.9278	0.6580	9.5653
0.9517	0.6628	9.5700
0.9332	0.6622	9.5653
0.9320	0.6682	9.5868
0.9260	0.6616	9.5970
0.9326	0.6568	9.5886
0.9452	0.6473	9.5874
0.9308	0.6580	9.5838
0.9386	0.6574	9.5880
0.9200	0.6802	9.5718
0.9176	0.6790	9.5784
0.9224	0.6706	9.5688
0.9272	0.6431	9.5928
0.9224	0.6532	9.5575
0.9386	0.6568	9.5736
0.9147	0.6598	9.5706
0.9266	0.6808	9.5832
0.9206	0.6640	9.5688
0.9320	0.6604	9.5772
0.9416	0.6568	9.5898
0.9416	0.6556	9.5635
0.9308	0.6604	9.5778
0.8991	0.6760	9.5832
0.8979	0.6772	9.5724
0.9290	0.6610	9.5982
0.9332	0.6616	9.6179
0.9464	0.6544	9.5748
0.9446	0.6473	9.5850
0.9027	0.6814	9.6155
0.9206	0.6670	9.5832
0.9152	0.6658	9.5964
0.9410	0.6610	9.6041
0.9505	0.6496	9.5772
0.9386	0.6574	9.5964
0.9302	0.6664	9.5850
0.9015	0.6891	9.5587
0.9272	0.6610	9.5730
0.9236	0.6646	9.6017
0.9565	0.6496	9.5868
0.9679	0.6604	9.5898
0.8895	0.6843	9.5838
0.9218	0.6622	9.5688
0.9009	0.6748	9.5976
0.9099	0.6556	9.6029
0.9499	0.6496	9.5820
0.9601	0.6879	9.5868
0.8949	0.6508	9.5880
0.7747	0.6712	9.5623
0.8931	0.6879	9.5790
0.9326	0.6467	9.5724
0.9434	0.6562	9.5796
0.9619	0.6664	9.5706
0.9320	0.6808	9.5635
0.8967	0.6718	9.5365
0.8871	0.6903	9.5581
0.9398	0.6646	9.5982
0.9440	0.6706	9.5958
0.9440	0.6915	9.6012
0.9410	0.6700	9.5832
0.9123	0.6778	9.5509
0.8865	0.6317	9.5700
0.9344	0.6419	9.6179
0.9493	0.6879	9.5886
0.9338	0.6670	9.5796
0.9260	0.6431	9.5587
0.9105	0.6796	9.5162
0.9057	0.6520	9.5473
0.9380	0.6688	9.5814
0.9164	0.6748	9.5994
0.9326	0.6479	9.5856
0.9093	0.6790	9.5461
0.8710	0.6628	9.5353
0.9487	0.6496	9.5988
0.9147	0.6951	9.5916
0.9547	0.6628	9.5886
0.9176	0.6526	9.5934
0.8943	0.6861	9.5407
0.9194	0.6526	9.5611
0.9081	0.6724	9.6197
0.8734	0.6736	9.5994
0.9487	0.6419	9.5964
0.9248	0.6431	9.5557
0.9362	0.6676	9.5419
0.7848	0.6682	9.5850
0.8901	0.6891	9.5688
0.9230	0.6939	9.5916
0.9302	0.6377	9.5760
0.9063	0.6885	9.5802
0.9338	0.6419	9.5748
0.9302	0.6855	9.5844
0.8818	0.6694	9.5898
0.9470	0.6556	9.5611
0.8913	0.6825	9.5533
0.9493	0.6437	9.5617
0.9715	0.6867	9.5730
0.9093	0.6682	9.6006
0.9607	0.6670	9.5982
0.9487	0.6730	9.5760
0.9105	0.6347	9.5904
0.9571	0.6574	9.5844
0.8818	0.6766	9.5551
0.9188	0.6275	9.5820
0.9547	0.6568	9.5623
0.9260	0.6616	9.5778
0.9715	0.6580	9.5970
0.9009	0.7328	9.5778
1.0708	0.6586	9.5958
0.9577	0.6502	9.5748
0.9117	0.6694	9.5688
0.9577	0.6323	9.5958
0.9230	0.6969	9.5946
0.9051	0.6419	9.5826
0.9517	0.6281	9.5970
0.8847	0.6784	9.6029
0.9398	0.6299	9.5910
0.9326	0.7041	9.5539
0.9021	0.6616	9.6029
0.9912	0.6156	9.5742
0.9051	0.6945	9.6113
0.9230	0.6520	9.5892
0.9099	0.7119	9.5192
0.8955	0.6431	9.5994
0.9721	0.6108	9.5671
0.9200	0.6778	9.5952
0.9362	0.6138	9.6089
0.9164	0.6987	9.5138
0.8692	0.6658	9.5677
0.9523	0.5946	9.5443
0.9045	0.6945	9.5790
0.9661	0.6311	9.5892
0.9290	0.7029	9.5515
0.8853	0.6700	9.5838
0.9601	0.6185	9.5371
0.9045	0.6814	9.5820
0.9398	0.6365	9.5922
0.9057	0.7214	9.5318
0.8949	0.6766	9.5700
0.9482	0.6096	9.5365
0.9176	0.6814	9.5928
0.9428	0.6616	9.5671
0.9033	0.7304	9.5102
0.8979	0.6550	9.5647
0.9344	0.6473	9.5126
0.9499	0.6670	9.5952
0.9260	0.6843	9.6137
0.8680	0.7065	9.5282
0.9230	0.6425	9.5575
0.9033	0.6628	9.5581
0.9404	0.6221	9.6227
0.9158	0.7495	9.5940
0.9021	0.6490	9.5294
0.9230	0.6706	9.4725
0.9266	0.6419	9.5371
0.9799	0.6592	9.5491
0.9147	0.7591	9.6071
0.8710	0.6915	9.5168
0.9386	0.6694	9.4749
0.9350	0.6036	9.6125
0.9547	0.6048	9.5653
0.8686	0.7370	9.5587
0.8979	0.6383	9.5383
0.8871	0.6490	9.4438
0.9302	0.6102	9.6293
0.9649	0.6616	9.6442
0.8937	0.7155	9.6376
0.9164	0.6323	9.5330
0.9517	0.6120	9.5497
0.9164	0.6353	9.6245
0.9404	0.6915	9.5922
0.8997	0.6975	9.5832
0.9063	0.6532	9.5820
0.9709	0.5773	9.6083
0.9117	0.6921	9.6436
0.9517	0.6843	9.5910
0.9075	0.7143	9.5724
0.9284	0.6311	9.4923
0.9547	0.6030	9.5521
0.8913	0.7256	9.5647
0.9404	0.6598	9.5802
0.9105	0.6831	9.5174
0.9446	0.5826	9.5575
0.9679	0.6496	9.6017
0.8865	0.7107	9.5790
0.9673	0.6664	9.5210
0.8907	0.7113	9.5718
0.9356	0.5952	9.5479
0.9111	0.7244	9.6143
0.9320	0.6574	9.6161
0.9625	0.6574	9.5898
0.9027	0.6580	9.5868
0.9356	0.6616	9.5300
0.9338	0.7053	9.5629
0.9141	0.6197	9.6137
0.9619	0.6814	9.5718
0.8788	0.6867	9.5659
0.9565	0.6784	9.5294
0.9015	0.6526	9.6155
0.9428	0.6269	9.6269
0.9254	0.6897	9.5892
0.8698	0.6808	9.5389
0.9577	0.6825	9.5395
0.9039	0.6203	9.5970
0.9649	0.6467	9.6059
0.8794	0.7286	9.5964
0.9141	0.6610	9.5545
0.9529	0.6431	9.5892
0.9224	0.6161	9.6101
0.9643	0.7047	9.5772
0.8770	0.6981	9.5904
0.9284	0.6150	9.5694
0.9565	0.6287	9.6215
0.9511	0.6520	9.5838
0.8895	0.7585	9.5264
0.8710	0.6855	9.4947
0.9613	0.6227	9.6041
0.9464	0.6024	9.5557
0.9410	0.7460	9.6167
0.9212	0.9164	9.5665
0.9081	0.6329	9.5994
1.0146	0.5414	9.6442
0.9224	0.6293	9.6394
0.9302	0.7184	9.5461
0.8429	0.6126	9.5258
0.9787	0.5809	9.6143
0.9721	0.6132	9.6107
0.9380	0.6730	9.5868
0.9135	0.7777	9.5545
0.8656	0.6760	9.6203
0.9888	0.5336	9.6622
0.9141	0.6467	9.6017
0.8883	0.7358	9.4905
0.8931	0.7388	9.4989
0.9224	0.5683	9.6179
0.9870	0.6377	9.6364
0.9141	0.7172	9.5802
0.9224	0.7065	9.5754
0.8997	0.6425	9.6382
0.9476	0.6269	9.6478
0.9858	0.6849	9.5808
0.8931	0.6921	9.5180
0.9278	0.6909	9.5270
0.9236	0.6449	9.5617
0.9846	0.6628	9.5826
0.8871	0.7131	9.6149
0.9105	0.6479	9.6346
0.9164	0.6604	9.6370
0.9206	0.5910	9.6071
0.9290	0.7071	9.5934
0.9105	0.6431	9.5808
0.9416	0.6622	9.5647
0.9158	0.6550	9.6167
0.9302	0.6706	9.6269
0.9386	0.6760	9.6317
0.9147	0.6407	9.5784
0.9487	0.6682	9.6053
0.8961	0.6431	9.5964
0.9661	0.6467	9.6125
0.8859	0.6742	9.5730
0.8991	0.6688	9.5677
0.9176	0.6694	9.5772
0.9553	0.6269	9.6346
0.9529	0.6682	9.5892
0.8776	0.7023	9.5665
0.9272	0.6634	9.5904
0.9470	0.6359	9.6000
0.9541	0.6485	9.5958
0.8919	0.7190	9.5383
0.8764	0.6760	9.5688
0.9511	0.6191	9.6173
0.9751	0.6090	9.6299
0.8871	0.6897	9.5258
0.8823	0.7352	9.5048
0.9212	0.6736	9.5964
1.0038	0.5844	9.6317
0.8853	0.6820	9.5964
0.8853	0.7555	9.5270
0.8997	0.7077	9.6125
0.9799	0.5456	9.6400
0.9147	0.6191	9.6352
0.8835	0.7232	9.5449
0.9158	0.7029	9.5533
0.9535	0.5731	9.5790
0.9380	0.6449	9.6131
0.8985	0.7208	9.5455
0.9141	0.7304	9.5222
0.9673	0.6048	9.6012
0.9003	0.6102	9.6137
0.8548	0.7226	9.5324
0.9302	0.6867	9.5389
0.9727	0.6359	9.5820
0.9242	0.5970	9.6586
0.9033	0.7178	9.5389
0.9176	0.7083	9.5946
0.9625	0.6287	9.6065
0.8794	0.6658	9.5772
0.9332	0.6885	9.5659
0.7836	0.6921	9.5700
0.9272	0.6150	9.6329
0.9410	0.6897	9.5820
0.9350	0.6658	9.5994
0.9380	0.6951	9.5796
0.8907	0.6227	9.5916
0.9368	0.6634	9.5922
0.9027	0.6586	9.5491
0.8937	0.6425	9.5904
0.8716	0.6634	9.4935
0.9368	0.6718	9.5706
0.9380	0.6449	9.5419
0.9170	0.6634	9.6131
0.8919	0.6933	9.5593
0.9039	0.6951	9.5306
0.9422	0.6413	9.6197
0.9129	0.6634	9.5772
0.8997	0.6730	9.6053
1.0504	0.6461	9.5294
0.9487	0.6443	9.5820
0.9147	0.6473	9.5982
0.8865	0.8788	9.5671
0.9314	0.6790	9.5401
0.9487	0.5157	9.6311
0.9302	0.6419	9.5856
0.9254	0.8309	9.4995
0.9176	0.7358	9.5186
0.9170	0.4917	9.6089
0.9105	0.6586	9.5688
0.8931	0.8088	9.6053
0.9242	0.7119	9.4875
0.9218	0.6060	9.6233
0.9410	0.6359	9.6149
0.9015	0.6963	9.5682
0.9589	0.6867	9.6006
0.9410	0.5994	9.5557
0.9595	0.7687	9.5533
0.9081	0.7489	9.4905
0.9111	0.5970	9.6167
0.9021	0.7274	9.5712
0.8764	0.7310	9.5001
0.9039	0.6951	9.5593
0.9254	0.6084	9.6400
0.9230	0.6227	9.6000
0.9320	0.7125	9.5659
0.9230	0.6694	9.5312
0.9314	0.6550	9.5700
0.9422	0.6574	9.5437
0.9027	0.7017	9.5605
0.9326	0.6676	9.5533
0.9009	0.6490	9.5641
0.9278	0.6550	9.5479
0.8979	0.6640	9.5665
0.9039	0.6909	9.5138
1.0672	0.6885	9.5264
0.9817	0.6963	9.5473
0.8967	0.6156	9.6311
0.9093	0.6461	9.4989
0.9422	0.7334	9.4749
0.9858	0.6544	9.5521
0.8949	0.6658	9.5856
0.9386	0.7567	9.5772
0.8608	0.6455	9.5880
0.9499	0.5683	9.6424
0.9081	0.6401	9.6442
0.9200	0.8219	9.4761
0.9170	0.6802	9.5264
0.9721	0.5964	9.5551
0.9033	0.7035	9.6281
0.9021	0.7729	9.5593
0.9607	0.6676	9.5324
0.9487	0.6275	9.5700
0.9117	0.7621	9.5383
0.9009	0.7681	9.4785
0.9870	0.5180	9.6646
0.9158	0.6167	9.6083
0.8674	0.7400	9.5013
0.9338	0.6598	9.5048
0.9547	0.6251	9.4899
0.9332	0.7567	9.5204
0.8937	0.6227	9.5252
0.9703	0.6102	9.6239
0.9637	0.6413	9.6269
0.9039	0.6622	9.5784
0.9212	0.7244	9.4396
0.9260	0.4869	9.5659
0.9063	0.7119	9.5419
0.8991	0.7160	9.5641
0.8812	0.6054	9.5712
0.8973	0.6173	9.5898
0.9099	0.6604	9.5904
0.9482	0.6670	9.5282
0.9015	0.6598	9.5443
0.9625	0.6849	9.5042
0.8871	0.6981	9.4713
0.9637	0.7166	9.5533
0.8698	0.7119	9.5910
0.9637	0.6305	9.5694
0.9266	0.4636	9.6652
0.8955	0.6060	9.5521
0.8853	0.7298	9.5018
0.9924	0.6969	9.5760
0.9577	0.6490	9.5491
0.9141	0.9147	9.6376
0.9039	0.6269	9.6394
0.8895	0.5791	9.6556
0.9547	0.5970	9.6077
0.8459	0.8674	9.4510
0.9081	0.6616	9.5413
0.9637	0.6485	9.5982
0.9284	0.7196	9.5461
0.8889	0.8076	9.5162
0.9607	0.5665	9.6568
0.9003	0.6144	9.6556
0.8590	0.7184	9.5192
0.9511	0.6730	9.4253
0.9637	0.6096	9.4773
0.9182	0.7214	9.2835
0.8758	0.8154	9.2949
1.0271	0.5605	9.6430
0.9553	0.5791	9.5623
0.8883	0.7328	9.3810
0.9487	0.6185	9.5252
0.9416	0.5037	9.4947
0.8931	0.7890	9.4181
0.9386	0.7519	9.3224
0.9170	0.6329	9.4911
0.9248	0.6616	9.5258
0.9314	0.8022	9.5102
0.9039	0.6209	9.6131
0.9039	0.6473	9.5694
0.8889	0.6772	9.4983
0.8859	0.7160	9.3822
0.9254	0.5707	9.5192
0.9302	0.7274	9.5204
0.9374	0.6933	9.4582
0.7854	0.6933	9.4540
0.8590	0.6120	9.5018
0.9194	0.6951	9.5132
0.9739	0.5821	9.6382
0.8961	0.6796	9.5688
0.9272	0.5958	9.4426
0.9326	0.6754	9.5868
0.9141	0.6299	9.5126
0.9284	0.6622	9.4008
1.0008	0.7388	9.5144
0.8919	0.6820	9.4648
0.8046	0.7579	9.5539
0.8913	0.6550	9.6263
0.9051	0.5731	9.6245
0.8536	0.6802	9.5371
0.8429	0.7047	9.3882
0.8931	0.6203	9.3415
0.9541	0.6921	9.5808
0.7765	0.7920	9.4055
0.8865	0.7220	9.3876
1.0068	0.5348	9.3894
0.8853	0.6556	9.2554
0.8668	0.7107	9.3451
1.1623	0.5593	9.4570
0.9302	0.4804	9.4612
0.8871	0.7854	9.3463
0.9296	0.5587	9.4133
0.8806	0.4947	9.3032
0.8770	0.7466	9.1537
0.8871	0.9577	9.2440
0.9781	0.6885	9.3637
0.9511	0.7944	9.4594
0.8608	0.7884	9.3852
0.9129	0.6161	9.4989
0.9039	0.6024	9.5509
0.7944	0.6790	9.3158
0.9069	0.7041	9.3834
0.9422	0.5874	9.5048
0.8835	0.6885	9.5102
0.9691	0.7448	9.3972
0.9410	0.5192	9.4827
1.0433	0.6305	9.4313
0.9643	0.8686	9.3822
0.9111	0.7107	9.3996
0.9936	0.4672	9.4833
0.9655	0.6108	9.5084
0.9703	0.5599	9.5264
0.8674	0.6329	9.5030
0.8602	0.6987	9.4761
0.9200	0.6239	9.4797
0.8154	0.6837	9.5946
0.8345	0.7268	9.4588
0.9685	0.7298	9.3948
0.8818	0.7555	9.5036
0.9553	0.7184	9.3128
1.0175	0.8578	9.4707
0.9511	0.6634	9.4785
0.8907	0.6825	9.3930
0.8363	0.5970	9.4929
0.9625	0.4612	9.5174
0.9852	0.6108	9.3445
0.9380	0.6467	9.3194
1.0056	0.4624	9.5527
0.9727	0.6072	9.5204
0.8841	0.7998	9.3116
0.9523	0.6574	9.3852
0.8351	0.5085	9.4121
0.8542	0.6126	9.3248
0.8835	0.8596	9.2386
0.8405	0.6538	9.1728
0.9230	0.7454	9.1034
0.8219	0.8973	9.0963
0.8823	0.7065	9.3308
0.8716	0.5749	9.4139
0.8261	0.7304	9.3032
0.8393	0.6161	9.3427
0.9852	0.5994	9.2799
1.0648	0.6646	9.2195
0.9386	0.6078	9.3050
1.0397	0.5533	9.4349
0.9601	0.6144	9.3290
0.9775	0.7119	9.2177
0.8907	0.5264	9.3326
1.0104	0.7202	9.2560
0.9631	0.8052	9.2404
0.9745	0.6401	9.3535
0.9158	0.8243	9.4731
0.8913	0.8662	9.5336
0.9338	0.5725	9.3427
0.7926	0.6981	9.4636
0.7914	0.7836	9.3714
0.8955	0.6048	9.2991
0.8770	0.7908	9.3535
0.9404	0.6658	9.1992
0.9697	0.6048	9.4008
0.9727	0.5892	9.5210
0.9135	0.6861	9.3463
0.9799	0.6389	9.2524
0.9745	0.5994	9.4456
0.9021	0.6233	9.3756
0.9476	0.6939	9.3379
0.9864	0.7113	9.3433
0.9278	0.6993	9.3373
0.8333	0.8734	9.3571
1.0128	0.6341	9.4301
0.9147	0.7107	9.4307
0.7131	0.7603	9.2662
0.8961	0.6395	9.3505
0.9368	0.7711	9.2817
0.8375	0.7137	9.3361
0.9978	0.6150	9.5240
1.0331	0.5892	9.4002
0.8734	0.6909	9.2016
0.9685	0.5151	9.2428
1.0151	0.5073	9.2931
0.9164	0.6269	9.0711
0.9673	0.7274	9.1998
0.9846	0.4845	9.1316
0.7950	0.7549	9.1028
1.0211	0.8806	9.0717
0.8979	0.6431	9.2841
0.8883	0.7513	9.1585
0.8782	0.7920	9.2554
0.8142	0.6520	9.2380
0.9099	0.7214	9.2303
0.9541	0.8967	9.2063
1.0576	0.6903	9.1716
0.9511	0.7406	9.2967
0.9033	0.7962	9.2033
1.0098	0.5809	9.2931
0.9087	0.7226	9.3260
0.8261	0.6126	9.3696
1.0020	0.5049	9.2865
0.8919	0.6532	9.3978
0.9003	0.6096	9.3696
1.0217	0.6538	9.3170
0.9577	0.6939	9.3900
0.9338	0.7627	9.2787
0.9493	0.6963	9.3966
0.9057	0.7011	9.3350
0.8710	0.8046	9.3015
0.8734	0.5940	9.4343
0.9248	0.5743	9.2410
0.8315	0.7005	9.2871
0.8919	0.5192	9.1944
0.9051	0.6419	9.2470
0.8632	0.7149	9.2123
1.0457	0.6640	9.1543
0.9583	0.6814	9.2817
0.9458	0.8560	9.0939
1.0331	0.7729	9.2081
0.9003	0.6048	9.4109
0.9631	0.6544	9.2967
0.9805	0.7137	9.3326
0.8722	0.5904	9.3523
0.9374	0.7651	9.1621
0.8847	0.7693	9.2668
0.8728	0.6389	9.2709
0.9613	0.7310	9.3080
0.9894	0.7974	9.3200
0.9547	0.6401	9.4097
0.9302	0.6712	9.5258
0.8483	0.8572	9.3194
1.0439	0.5019	9.4008
0.9697	0.6873	9.4235
0.8644	0.7178	9.2865
1.0540	0.5486	9.3804
0.9637	0.6766	9.4480
0.8823	0.7292	9.3786
1.1180	0.5539	9.3164
0.9141	0.6909	9.3457
0.9266	0.6843	9.3990
0.9380	0.6658	9.3996
0.8835	0.6461	9.5443
0.8626	0.6843	9.5443
0.9655	0.5970	9.4618
0.8548	0.6706	9.4911
0.8800	0.6413	9.4618
0.9458	0.6676	9.3822
0.8919	0.6269	9.4666
0.9296	0.7131	9.4779
1.0199	0.6993	9.4612
0.9751	0.7029	9.4785
0.9182	0.7573	9.4654
0.9954	0.6754	9.6358
0.9446	0.7585	9.5042
0.9057	0.6885	9.6975
0.9440	0.5659	9.6795
0.8536	0.6239	9.5730
0.8608	0.6054	9.5371
0.8680	0.5629	9.5706
0.8680	0.6257	9.4803
0.8177	0.6508	9.4558
0.9075	0.6622	9.5072
0.9535	0.7699	9.4372
1.0409	0.6676	9.3684
1.0002	0.7125	9.5007
1.0157	0.7902	9.5288
0.8716	0.7101	9.4827
1.0134	0.6473	9.5850
0.9392	0.7137	9.5952
0.8345	0.6431	9.3960
0.9846	0.5402	9.6107
0.9882	0.6987	9.6035
0.8596	0.6814	9.3888
0.9404	0.5282	9.5784
0.9278	0.6126	9.5509
0.8698	0.6407	9.4450
0.9105	0.5809	9.5694
0.9529	0.6048	9.4360
0.8303	0.7340	9.4139
0.9063	0.6179	9.4444
0.8752	0.5958	9.3774
0.7765	0.7256	9.2745
0.9314	0.6156	9.2267
0.9440	0.6754	9.3332
0.8213	0.8177	9.3260
0.9906	0.6377	9.2691
0.9721	0.7603	9.4486
0.7878	0.7489	9.4301
1.0163	0.6197	9.3661
1.0056	0.7735	9.4492
0.8483	0.7005	9.4630
0.9589	0.6000	9.4037
0.9278	0.6538	9.5258
0.8076	0.6299	9.4666
0.9236	0.6233	9.4905
0.8985	0.7244	9.4181
0.9374	0.6150	9.4923
0.9715	0.5850	9.4965
0.9152	0.7017	9.4349
0.8889	0.6281	9.4079
0.9840	0.6281	9.4223
0.9266	0.6861	9.4378
0.9194	0.6814	9.4953
1.0367	0.6580	9.5629
0.7681	0.7585	9.4845
0.9003	0.7131	9.4737
0.9482	0.6999	9.5581
0.8423	0.6933	9.4498
0.8518	0.6592	9.5150
1.0552	0.7328	9.4678
0.8847	0.7202	9.5587
0.9147	0.6742	9.5892
0.9685	0.6616	9.5874
0.9272	0.6939	9.5910
0.9817	0.6981	9.5808
0.9547	0.6951	9.6275
0.9673	0.7137	9.5377
0.9404	0.7149	9.5976
0.9188	0.6855	9.7005
0.8955	0.7041	9.5318
0.9410	0.6413	9.5473
0.9374	0.6132	9.6652
0.8889	0.7089	9.4917
0.9176	0.5904	9.5001
0.8823	0.6209	9.6179
0.8279	0.7346	9.4468
0.9272	0.5761	9.4205
1.0606	0.6676	9.5826
0.8907	0.7436	9.4552
0.9637	0.5563	9.5838
0.9685	0.7442	9.5946
0.8154	0.7131	9.4815
0.9817	0.4953	9.6149
0.9745	0.5958	9.6424
0.8620	0.6885	9.4648
0.9733	0.5414	9.5982
0.8853	0.7220	9.4462
0.8435	0.6616	9.5407
1.0080	0.5121	9.5359
0.8907	0.7178	9.5521
0.9099	0.6909	9.6035
1.0816	0.5844	9.4689
0.8871	0.7591	9.4151
0.9003	0.7352	9.4193
1.0026	0.6156	9.4636
0.8865	0.7262	9.4025
0.9350	0.7316	9.4875
1.0032	0.6311	9.4707
0.9386	0.9182	9.3427
1.0104	0.6963	9.4755
1.0110	0.6395	9.4564
0.8650	0.7783	9.4043
0.9954	0.5970	9.5186
0.9464	0.6658	9.4295
0.8566	0.7639	9.4271
1.0110	0.6329	9.5395
0.8883	0.7495	9.4211
0.8722	0.6843	9.3637
0.9697	0.7017	9.5425
0.8907	0.7741	9.4211
0.9344	0.6275	9.4779
0.9811	0.6652	9.5712
0.9081	0.7675	9.4378
0.9511	0.6622	9.4893
0.9111	0.6586	9.6352
0.8925	0.6915	9.4277
0.9613	0.5755	9.6017
0.8740	0.6150	9.6735
0.8590	0.7232	9.3643
0.9493	0.5850	9.5611
0.8734	0.6730	9.6424
0.8417	0.7298	9.5001
1.0534	0.5575	9.6478
0.9158	0.8088	9.7142
0.8548	0.7244	9.6448
1.0146	0.6353	9.7118
0.9368	0.7358	9.6693
0.8710	0.6520	9.5359
0.9930	0.5934	9.5527
0.8818	0.7340	9.4654
0.9182	0.6706	9.4432
0.9374	0.6120	9.4588
0.8148	0.7226	9.4528
0.9517	0.5133	9.5353
0.9649	0.5276	9.5168
0.8136	0.7454	9.4917
0.9404	0.5515	9.6006
0.8889	0.6987	9.5007
0.8351	0.6473	9.5736
0.9846	0.5414	9.6693
0.8632	0.7591	9.4977
0.9093	0.6843	9.5186
0.9559	0.6502	9.7519
0.8506	0.7160	9.4899
0.9583	0.6443	9.5060
0.9517	0.7101	9.5736
0.8871	0.7298	9.4707
1.0116	0.6664	9.6029
0.9559	0.7711	9.5359
0.8758	0.6664	9.4396
0.9978	0.6030	9.4845
0.8572	0.8698	9.3601
0.9308	0.7238	9.4139
0.9470	0.5904	9.4923
0.8494	0.7878	9.3661
0.9386	0.6006	9.3834
0.9356	0.6138	9.4049
0.8022	0.8195	9.3625
0.9619	0.5533	9.4564
0.7932	0.6490	9.4917
0.7759	0.7555	9.4570
0.9703	0.5049	9.5228
0.8931	0.7214	9.4684
0.8518	0.7537	9.4911
0.9852	0.6323	9.4941
0.8441	0.7466	9.5599
0.9434	0.6700	9.5312
0.9793	0.7573	9.4785
0.8740	0.7507	9.5886
0.9864	0.6413	9.6113
0.9374	0.7304	9.5485
0.9470	0.6526	9.6418
0.9589	0.6532	9.6867
0.8112	0.7364	9.6113
0.9960	0.6203	9.6580
0.9535	0.6030	9.7842
0.8901	0.7370	9.6006
1.1659	0.6090	9.6849
0.9745	0.6825	9.6448
0.8913	0.7095	9.5324
1.0283	0.5545	9.6394
0.8895	0.6275	9.5742
0.8973	0.5874	9.5156
0.9781	0.5019	9.5096
0.8148	0.6808	9.5587
0.9308	0.5803	9.5419
0.9583	0.6066	9.4917
0.8674	0.6808	9.5001
0.9601	0.6150	9.6412
0.8937	0.7023	9.4468
0.8279	0.6861	9.5066
0.9834	0.6287	9.4953
0.8602	0.7137	9.4701
0.9386	0.6161	9.4935
0.9386	0.7047	9.5389
0.8148	0.7113	9.3696
0.9278	0.6305	9.4384
0.9152	0.7364	9.4648
0.8656	0.7137	9.3577
0.9900	0.6275	9.4899
0.9093	0.8686	9.1944
0.9230	0.6760	9.2422
0.9793	0.6975	9.3080
0.8363	0.8076	9.2231
0.9703	0.5725	9.3535
0.9242	0.6963	9.4079
0.7872	0.7364	9.4241
0.9649	0.5707	9.3589
0.8841	0.7478	9.4025
0.9069	0.6377	9.5748
0.9649	0.6616	9.5198
0.8441	0.7418	9.4695
1.0510	0.6843	9.4689
0.9739	0.8016	9.4881
0.9015	0.7184	9.4725
1.1174	0.6150	9.6323
0.8812	0.7555	9.5521
1.0056	0.5145	9.4695
1.0199	0.6604	9.5174
0.9063	0.7155	9.2787
1.0343	0.5515	9.3625
0.9182	0.6760	9.3798
0.8698	0.7155	9.2727
1.0104	0.5886	9.3092
0.7436	0.7615	9.2004
0.9799	0.5934	9.3350
0.9200	0.6508	9.3595
0.7537	0.6790	9.2727
0.9942	0.6628	9.2608
0.8249	0.7155	9.4755
0.8459	0.5946	9.3583
1.0187	0.6909	9.4091
0.8758	0.7579	9.3960
1.0421	0.5737	9.4360
0.9882	0.7813	9.3050
0.9362	0.7178	9.3326
1.1133	0.6425	9.3433
0.8812	0.8171	9.4743
1.0026	0.6150	9.3667
1.0516	0.6676	9.4289
0.8387	0.7531	9.4785
0.9924	0.5569	9.4408
0.9374	0.6670	9.4337
0.8584	0.6233	9.5186
1.0140	0.6574	9.5030
0.8267	0.7292	9.4540
0.9416	0.5468	9.5222
0.9212	0.7095	9.5772
0.8267	0.6879	9.4504
1.0349	0.6000	9.5132
0.8459	0.7789	9.3397
1.0367	0.5294	9.3870
1.0301	0.6820	9.4875
0.8626	0.7543	9.3822
1.0684	0.5348	9.4354
0.8871	0.6825	9.4827
0.8818	0.7071	9.3696
1.0074	0.6407	9.3493
0.8040	0.6927	9.4235
0.9254	0.5575	9.4642
0.9051	0.7346	9.4426
0.8560	0.6831	9.4737
0.9984	0.6670	9.4923
0.8070	0.7872	9.5324
1.0086	0.6150	9.5234
1.0307	0.7681	9.4235
0.9200	0.7292	9.4600
1.0355	0.6000	9.5198
0.8488	0.7077	9.6185
0.9254	0.5204	9.5138
0.9948	0.5677	9.4660
0.8333	0.6425	9.5479
0.9715	0.5509	9.5760
0.9129	0.6784	9.4157
0.9763	0.5761	9.4833
1.0481	0.6508	9.4660
0.8465	0.7699	9.4630
0.9559	0.6461	9.4277
0.9045	0.8177	9.3009
0.8758	0.6401	9.3403
0.9583	0.7501	9.4205
0.7783	0.8321	9.2213
0.9984	0.5976	9.2231
0.9224	0.7364	9.3236
0.8530	0.7358	9.3015
0.9667	0.5928	9.3326
0.8734	0.7280	9.3810
0.9625	0.6144	9.3553
1.0259	0.6706	9.2943
0.8782	0.6185	9.5018
1.0223	0.6383	9.4522
0.8871	0.8303	9.4959
0.9793	0.5701	9.5605
0.9906	0.6323	9.6197
0.8345	0.7280	9.5736
0.9882	0.5635	9.5844
0.8453	0.6610	9.5551
0.8488	0.6066	9.5383
1.0104	0.7244	9.5192
0.8249	0.7155	9.5036
1.0181	0.5671	9.5102
0.9763	0.6688	9.5449
0.8387	0.6395	9.5282
1.0403	0.6371	9.4905
0.8506	0.7472	9.3936
1.0355	0.5611	9.4031
1.0253	0.7436	9.4187
0.8207	0.6963	9.2548
1.0744	0.6718	9.2261
0.8148	0.8512	9.1734
0.9081	0.6102	9.0388
0.9858	0.7292	9.0699
0.7466	0.7795	9.0239
0.9703	0.5994	9.0179
0.9069	0.7717	9.2356
0.8710	0.6927	9.1280
0.9822	0.6682	9.0580
0.8040	0.7202	9.2273
0.9715	0.6179	9.2488
0.9170	0.7830	9.3080
1.0032	0.5803	9.4337
1.1414	0.6287	9.3726
0.9254	0.7813	9.2709
1.1563	0.6425	9.2919
1.0235	0.7238	9.3158
0.9176	0.6203	9.1920
1.1127	0.6885	9.2297
0.8106	0.6837	9.1298
0.9930	0.5641	9.2225
0.9655	0.6766	9.2201
0.7639	0.5695	9.1585
0.9996	0.6401	9.2548
0.7771	0.7268	9.1190
0.9487	0.5390	9.1513
0.9386	0.6592	9.1549
0.8255	0.6550	9.0376
1.0469	0.6233	9.0412
0.8758	0.8261	8.8319
1.0409	0.6054	8.8355
0.9978	0.6221	8.9533
0.8740	0.7436	8.9677
1.0516	0.6072	8.9910
0.8913	0.7819	9.0143
0.9392	0.6634	8.9964
0.9643	0.7346	8.9371
0.8255	0.7202	9.0676
1.0714	0.6538	9.1615
0.8710	0.7795	9.0891
1.0373	0.6018	9.3212
1.0564	0.8255	9.1986
0.8423	0.7579	9.2398
1.0612	0.6263	9.3050
0.8411	0.7149	9.1926
0.9404	0.6311	9.2422
0.9188	0.7597	9.2949
0.8022	0.7065	9.4612
1.0211	0.5898	9.3966
0.9194	0.7143	9.3696
0.9021	0.5856	9.4253
0.9625	0.7131	9.3936
0.8142	0.6885	9.5940
1.0977	0.5689	9.4432
0.9260	0.7334	9.4941
0.9685	0.5515	9.3559
1.0319	0.7029	9.4049
0.7968	0.7304	9.4384
1.0516	0.4923	9.2967
0.8656	0.7119	9.3984
0.8698	0.6173	9.2476
1.0140	0.6664	9.2398
0.7753	0.7011	9.3254
0.9966	0.5755	9.1782
0.9158	0.7244	9.2004
0.9123	0.6126	9.2087
1.0570	0.7525	9.2345
0.8506	0.6628	9.2010
1.1013	0.6873	9.1507
0.8267	0.8560	9.0963
0.8602	0.6455	9.1513
1.0092	0.7495	9.1411
0.7711	0.6646	9.0735
0.9398	0.4481	9.1597
0.8309	0.7406	8.9928
0.8034	0.6891	9.0018
0.9745	0.6413	8.9258
0.7813	0.6664	9.0065
0.9434	0.6108	9.1310
0.8465	0.8016	9.1142
0.8973	0.6179	9.2458
1.0457	0.7244	9.3756
0.8674	0.7166	9.3020
1.0875	0.6006	9.3852
0.8512	0.8261	9.1932
0.8285	0.6748	8.9551
1.0612	0.6502	9.1130
0.8124	0.7615	9.1758
0.9840	0.4965	9.2027
0.9410	0.7466	9.1920
0.8818	0.7537	9.1770
1.0726	0.7418	9.1896
0.8985	0.7101	9.2404
1.0642	0.6161	9.4307
0.9547	0.7926	9.2512
0.9188	0.6311	9.3702
1.0887	0.6891	9.3601
0.8040	0.6903	9.3499
1.0187	0.5653	9.4402
0.8901	0.6831	9.3894
0.9954	0.5946	9.3212
1.0427	0.6616	9.2368
0.8064	0.6455	9.3128
0.9511	0.5258	9.4037
0.8614	0.6849	9.2901
0.7872	0.5121	9.3667
0.9942	0.6933	9.2512
0.8835	0.7160	9.3385
1.0098	0.5922	9.4085
0.8393	0.7950	9.3206
0.9882	0.6084	9.3487
0.9978	0.7537	9.3930
0.8171	0.7340	9.2859
0.9984	0.4702	9.3038
0.8494	0.7310	9.2907
0.9021	0.6173	9.2823
0.9565	0.7095	9.2500
0.7759	0.6754	9.2482
1.0062	0.6508	9.3020
0.8656	0.7908	9.3583
0.9912	0.5940	9.4121
1.0265	0.7986	9.3433
0.8536	0.7358	9.2853
1.0600	0.6915	9.2273
0.8608	0.8680	9.1902
1.0146	0.6502	9.2213
0.9960	0.7430	9.3158
0.8548	0.6885	9.3846
1.0175	0.6903	9.3643
0.9051	0.8052	9.3882
0.9535	0.6084	9.3894
0.9577	0.8931	9.3296
0.8770	0.6694	9.4438
1.0492	0.7023	9.4349
0.8387	0.7585	9.4474
1.0241	0.6604	9.4008
0.9571	0.8159	9.3625
0.8488	0.6179	9.3936
0.9978	0.7220	9.3571
0.8076	0.7950	9.3834
0.9619	0.5432	9.2650
0.9793	0.8040	9.3613
0.8315	0.7125	9.4133
0.9541	0.6568	9.2219
0.8500	0.7466	9.2596
0.9667	0.5372	9.2374
0.8758	0.7274	9.2470
0.8877	0.6742	9.2674
1.0235	0.7819	9.2865
0.8728	0.7166	9.3260
1.0367	0.5922	9.2805
0.8889	0.8357	9.3152
0.9476	0.6323	9.4157
0.9428	0.7316	9.2159
0.8237	0.7561	9.2697
1.0289	0.5563	9.1381
0.8542	0.7334	9.2267
0.8937	0.5850	9.4073
0.9625	0.6126	9.2398
0.7795	0.5743	9.3918
1.0122	0.6156	9.3541
0.8818	0.8010	9.3451
0.9649	0.6449	9.4163
0.9350	0.7579	9.4181
1.0008	0.5880	9.4785
1.0534	0.7232	9.3511
0.8219	0.6987	9.3750
1.0146	0.5665	9.4199
0.9057	0.7292	9.3577
0.8566	0.5940	9.2871
1.0187	0.6209	9.2907
0.8016	0.7143	9.3003
0.9667	0.5330	9.3224
0.9302	0.7256	9.3744
0.9655	0.6658	9.3846
0.9583	0.7035	9.2033
0.8877	0.6383	9.4181
1.0361	0.7208	9.3786
0.8285	0.7633	9.4343
0.9972	0.6209	9.3948
0.9613	0.8213	9.2554
0.8536	0.6479	9.2446
0.9374	0.7729	9.0329
0.8728	0.9051	8.9874
0.9272	0.4756	8.9587
0.9362	0.6909	8.9772
0.9075	0.7005	9.1256
0.9978	0.6449	9.1017
0.8453	0.7178	9.1160
1.0181	0.6090	9.2446
0.8441	0.6778	9.3026
0.9601	0.6281	9.1908
0.8979	0.7555	9.2901
0.9093	0.5438	9.3822
1.1312	0.7119	9.3978
0.9075	0.7125	9.3230
1.0223	0.6203	9.3266
0.9499	0.7741	9.3481
0.8518	0.6030	9.2273
1.0349	0.6646	9.3679
0.8925	0.7932	9.2566
0.9547	0.5288	9.3696
0.8913	0.7035	9.2614
0.9152	0.7358	9.2967
0.9416	0.6646	9.2793
0.8315	0.6556	9.2919
0.9822	0.6909	9.2757
0.9278	0.6981	9.3816
0.9631	0.7621	9.4127
1.0074	0.8315	9.3625
0.9643	0.5779	9.5258
1.0678	0.7202	9.5581
0.8937	0.7836	9.4079
1.0349	0.5677	9.6029
0.9846	0.7101	9.5204
0.8829	0.6496	9.3816
1.0636	0.6227	9.2757
0.8219	0.7202	9.3110
0.9123	0.5779	9.3068
0.8764	0.6825	9.3930
0.9458	0.6706	9.3015
0.9458	0.7448	9.3003
0.8243	0.6431	9.3499
1.0056	0.7753	9.3056
0.9272	0.6975	9.3469
1.0247	0.6150	9.3619
0.9368	0.8285	9.4576
0.9894	0.4857	9.4540
1.2197	0.6975	9.6155
0.8124	0.6814	9.3984
1.0199	0.4863	9.5072
0.8997	0.8536	9.2536
0.8662	0.5910	9.2949
0.9523	0.6209	9.2674
0.8441	0.7155	9.3032
1.0169	0.6820	9.2452
0.9416	0.7143	9.2279
0.9727	0.6616	9.2943
0.9242	0.7304	9.2811
0.8979	0.6114	9.4725
1.0080	0.7819	9.2931
0.9164	0.6311	9.3912
1.0887	0.6072	9.4779
0.8429	0.7549	9.4791
0.9643	0.5378	9.5419
0.9422	0.7005	9.6041
0.8016	0.6419	9.4552
1.0750	0.5970	9.4570
0.8453	0.8255	9.2027
0.9505	0.6018	9.2398
0.9308	0.6927	9.2937
0.8488	0.6927	9.3637
1.0134	0.6688	9.2554
0.8644	0.7005	9.3768
0.9559	0.6419	9.3774
0.9679	0.7507	9.3798
1.0301	0.6616	9.4881
0.9655	0.8177	9.3619
0.9721	0.5551	9.5114
1.0618	0.8046	9.4857
0.8530	0.7765	9.4875
1.0504	0.5952	9.4660
0.8955	0.7914	9.3350
0.9069	0.6233	9.3056
1.0337	0.6873	9.3822
0.7992	0.6825	9.3140
1.0289	0.5545	9.3756
0.9188	0.7615	9.3738
0.9170	0.5755	9.3984
0.9715	0.6407	9.3092
0.9057	0.6227	9.5042
0.9900	0.7747	9.3487
0.9523	0.6993	9.3565
0.9894	0.6843	9.4749
0.9117	0.7382	9.2979
1.0421	0.6263	9.2201
0.8907	0.8411	9.3134
0.8453	0.5850	9.3266
1.0582	0.6975	9.3296
0.8291	0.7190	9.4923
0.9757	0.5013	9.5880
0.8919	0.7352	9.6137
0.8225	0.6496	9.3936
0.9619	0.6209	9.3822
0.8130	0.6897	9.3206
0.9111	0.5785	9.3188
0.9613	0.7489	9.3200
0.9643	0.6377	9.4253
0.9673	0.7172	9.3164
1.0163	0.6843	9.4869
1.0409	0.8219	9.4534
0.9619	0.7226	9.4438
1.0427	0.7149	9.5784
0.8859	0.7639	9.5647
1.0606	0.5491	9.5330
0.9924	0.7956	9.4390
0.7771	0.5940	9.4390
1.0702	0.6742	9.4259
0.8297	0.8201	9.4929
0.9649	0.5366	9.4331
0.9529	0.7394	9.6568
0.8979	0.6341	9.6155
0.9476	0.6150	9.5198
0.8351	0.7220	9.5174
0.9338	0.6544	9.4534
0.8961	0.7274	9.3864
0.9547	0.6939	9.4947
0.8859	0.7059	9.4229
0.9799	0.7274	9.5240
1.0074	0.8369	9.4749
0.8961	0.6335	9.5198
1.0552	0.6485	9.5401
0.8423	0.7914	9.6095
1.0068	0.5970	9.5904
0.9924	0.7208	9.6215
0.8363	0.6078	9.4953
1.0827	0.5689	9.2255
0.8088	0.8309	9.3146
0.8632	0.5755	9.3541
0.8973	0.7322	9.2674
0.9182	0.6999	9.4043
1.0116	0.7292	9.4067
0.9218	0.6556	9.4737
0.9882	0.7627	9.3541
0.9631	0.7238	9.4247
0.9781	0.6413	9.4133
0.8213	0.7753	9.3194
1.0421	0.5862	9.3320
0.9840	0.8889	9.2584
0.8668	0.6640	9.3738
1.1396	0.6784	9.3361
0.8746	0.6885	9.3684
1.0098	0.5539	9.3164
0.9003	0.6802	9.4157
0.8554	0.6347	9.0430
0.9775	0.6544	9.1585
0.8530	0.7376	9.1046
0.9284	0.6209	9.1256
0.9637	0.8040	9.1543
0.8991	0.6957	9.3445
0.9224	0.6622	9.2674
0.9912	0.6897	9.3984
1.0026	0.7807	9.3009
0.8871	0.5785	9.2608
1.0307	0.7920	9.1944
0.8471	0.8225	9.1549
1.0672	0.6102	9.1687
0.9147	0.8303	9.1902
0.9260	0.6072	9.2368
1.1150	0.7208	9.4360
0.7747	0.7364	9.3182
0.9882	0.5348	9.4953
0.8674	0.7567	9.3188
0.8626	0.6209	9.4091
0.9194	0.6347	9.3355
0.8644	0.7017	9.4510
0.9553	0.7663	9.3158
0.9218	0.7047	9.3756
0.9278	0.6078	9.3391
1.0636	0.7430	9.4199
1.1103	0.6903	9.4384
0.9147	0.7795	9.4366
0.9302	0.5545	9.3110
1.0570	0.8183	9.3840
0.8477	0.6867	9.2159
1.0313	0.5372	9.3427
0.8668	0.8405	9.2835
0.9637	0.5079	9.3882
1.0349	0.6664	9.4995
0.8231	0.6461	9.4450
0.9930	0.6281	9.2775
0.8040	0.7304	9.2931
0.8668	0.5665	9.4301
0.8423	0.6885	9.3541
0.9087	0.6706	9.3583
0.9218	0.7537	9.4761
0.9344	0.6138	9.4271
0.9673	0.7986	9.5347
0.9147	0.7478	9.4384
1.0552	0.6257	9.5826
0.8321	0.7310	9.3696
1.0451	0.6030	9.3009
0.8746	0.7980	9.2255
0.8112	0.5665	9.3158
1.0684	0.7011	9.2889
0.8177	0.6616	9.3912
0.9434	0.4768	9.3613
0.7675	0.8303	9.4498
0.9182	0.6622	9.3493
0.9410	0.6299	9.3912
0.8237	0.6329	9.4331
0.9350	0.7484	9.4043
0.8841	0.6724	9.3726
0.9314	0.6568	9.4923
0.9212	0.7597	9.4205
1.1635	0.6939	9.4881
0.9404	0.7771	9.5108
0.9505	0.5982	9.4612
1.1210	0.7454	9.3110
0.7543	0.7184	9.2434
1.2126	0.6066	9.4097
0.9152	0.8566	9.2680
1.0391	0.5964	9.3720
1.0678	0.6580	9.5545
0.8710	0.5886	9.4905
1.0187	0.6479	9.2781
0.8351	0.7220	9.3236
0.9135	0.6281	9.2997
0.9194	0.8674	9.1615
0.9667	0.7406	9.2775
0.8447	0.7089	9.3391
1.0020	0.6281	9.3756
0.9482	0.8710	9.3619
0.8554	0.5898	9.4301
1.0552	0.6431	9.4606
0.8357	0.8237	9.3038
1.1025	0.6293	9.3236
0.9063	0.7962	9.3290
0.8967	0.6640	9.2452
1.1007	0.7609	9.3158
0.8590	0.6018	9.4701
0.9966	0.4798	9.4002
0.9069	0.7920	9.3427
0.9523	0.5258	9.4384
0.9446	0.5844	9.4014
0.8782	0.7418	9.3942
0.9416	0.7567	9.4175
0.9009	0.6024	9.4971
0.9362	0.7681	9.5198
0.8806	0.7609	9.4366
1.0307	0.6502	9.5036
0.8303	0.9182	9.3224
1.0421	0.6610	9.2979
0.9541	0.8782	9.1974
0.8746	0.6395	9.2057
1.1539	0.7424	9.3673
0.8871	0.6401	9.4079
1.0110	0.4193	9.4522
0.8835	0.7627	9.3284
0.8608	0.6700	9.2907
0.9793	0.5491	9.2871
0.8518	0.6802	9.3457
1.0050	0.6700	9.4666
0.8997	0.6724	9.4319
0.9374	0.6383	9.4582
0.8859	0.7693	9.4097
0.9769	0.7053	9.4791
0.8219	0.7412	9.4223
1.0026	0.5503	9.4014
1.0492	0.8728	9.3978
0.7830	0.6407	9.3702
1.1438	0.6616	9.5820
0.8602	0.8130	9.4767
0.9811	0.5246	9.4480
0.9984	0.7621	9.3732
0.9099	0.7214	9.4061
1.0821	0.6407	9.4217
0.8321	0.6496	9.4175
0.9930	0.6694	9.3284
0.8722	0.6772	9.3140
0.8602	0.5426	9.2793
0.8459	0.7125	9.3577
0.9344	0.6736	9.2985
0.8082	0.7687	9.2997
0.9936	0.6173	9.3068
0.9876	0.9099	9.2889
0.8506	0.7238	9.2524
1.1414	0.7519	9.4366
0.8393	0.8650	9.3517
1.0810	0.5384	9.3361
1.0044	0.7346	9.3936
0.9380	0.6197	9.3427
1.1791	0.6694	9.3254
0.8477	0.6161	9.3876
1.0140	0.6323	9.4725
0.9362	0.8231	9.4265
0.8758	0.5025	9.4923
0.8554	0.7400	9.3068
0.9356	0.7268	9.3164
0.9093	0.7663	9.1914
0.9129	0.6694	9.4773
0.9793	0.8572	9.4031
0.8734	0.6287	9.4689
1.0642	0.5898	9.4869
0.8124	0.8447	9.2668
1.0229	0.6700	9.1322
0.9589	0.8171	9.2440
0.9876	0.7262	9.1986
1.1743	0.8070	9.3643
0.8441	0.6353	9.2913
1.0510	0.5025	9.2662
0.9218	0.8375	9.2434
0.8889	0.4750	9.2255
0.9380	0.5719	9.1280
0.9296	0.7495	9.1477
0.9727	0.6778	9.2099
0.9458	0.5378	9.3206
0.9679	0.8871	9.2739
0.8560	0.8668	9.3720
1.0355	0.6066	9.5024
0.7962	0.9009	9.1974
1.0869	0.7166	9.2488
0.9314	0.8088	9.4121
0.9266	0.6431	9.2542
1.1049	0.8177	9.4301
0.8375	0.5737	9.3792
0.9972	0.5731	9.4253
0.8351	0.7513	9.2482
0.9170	0.5862	9.3469
1.0181	0.5940	9.4354
0.9158	0.7202	9.2847
0.9039	0.6939	9.4941
0.9260	0.6012	9.5318
0.8943	0.8279	9.3643
0.7872	0.6443	9.3906
0.9781	0.6730	9.4085
0.8040	0.8554	9.3212
1.0672	0.6215	9.3439
0.8554	0.7908	9.4534
0.9176	0.6837	9.3559
0.9583	0.7424	9.4474
0.7717	0.7202	9.4438
1.0325	0.6006	9.3834
0.9158	0.7178	9.1603
0.9493	0.4588	9.1950
1.0157	0.7884	9.2721
0.9487	0.7603	9.2931
0.8794	0.6323	9.2362
0.9882	0.7424	9.3649
0.9811	0.8704	9.2566
0.8315	0.5491	9.2656
0.9727	0.8279	9.4037
0.8417	0.8243	9.1926
1.0528	0.5234	9.3738
0.7723	0.7394	9.3756
0.9069	0.6754	9.3290
0.8118	0.7711	9.3350
0.7214	0.6036	9.3128
1.1378	0.7358	9.1866
0.9009	0.8345	9.1220
1.0732	0.5509	9.0676
1.0199	0.8997	9.0759
0.9398	0.7310	9.0478
0.9218	0.6245	9.2488
0.9673	0.7651	9.1824
0.9637	0.7759	9.2285
0.8859	0.5109	9.2626
1.0337	0.7184	9.3272
0.7830	0.8279	9.2129
1.1061	0.5462	9.4151
0.7621	0.7830	9.4271
1.0193	0.6347	9.1692
0.9852	0.8393	9.2027
0.8758	0.5922	9.3242
1.1725	0.8267	9.4426
0.7753	0.7914	9.3690
1.0666	0.5779	9.4181
0.9266	0.8524	9.3344
0.8883	0.5366	9.2955
0.9272	0.6233	9.4594
0.9505	0.6496	9.3810
0.9709	0.7830	9.2368
0.8632	0.5761	9.3493
1.0146	0.7364	9.3463
0.8841	0.6933	9.2686
1.0439	0.6389	9.4193
0.7705	0.7986	9.3601
1.0415	0.7137	9.3684
0.9290	0.8207	9.4037
0.9308	0.6293	9.4606
1.1683	0.8052	9.2751
0.7693	0.6969	9.3912
1.0726	0.6843	9.2739
0.9218	0.9553	9.2374
0.9350	0.4875	9.2422
1.0032	0.6646	9.4019
0.9583	0.7298	9.2548
1.0175	0.5509	9.4576
0.9344	0.4857	9.4684
0.9631	0.8130	9.3499
0.8985	0.5497	9.3601
0.9164	0.6000	9.4666
0.8070	0.8010	9.3726
1.0146	0.7489	9.3894
0.7603	0.7376	9.5294
0.9009	0.7143	9.3391
1.0421	0.9787	9.2488
0.8393	0.6018	9.2913
1.1934	0.5797	9.3912
0.8375	0.8572	9.3607
0.9577	0.4863	9.4845
0.9607	0.7914	9.4911
0.9703	0.6993	9.2835
1.0110	0.6670	9.4701
0.9093	0.6042	9.2458
1.0247	0.7890	9.1477
0.8536	0.6347	9.2626
0.9326	0.6299	9.3948
0.8303	0.7729	9.2129
0.9703	0.7292	9.3463
0.8040	0.7938	9.3200
0.9625	0.6550	9.2686
0.9218	0.8710	9.3290
0.8106	0.4672	9.4253
1.1474	0.7394	9.3673
0.7310	0.7501	9.2356
1.0056	0.4463	9.2691
0.8859	0.9087	9.1842
0.8770	0.5043	9.0586
1.0349	0.6221	9.2428
0.9105	0.7059	9.1393
1.0140	0.8112	9.2016
0.9015	0.5868	9.3122
0.9739	0.8542	9.0454
0.8506	0.8488	8.9419
1.0241	0.5695	9.0688
0.9015	0.7543	9.1764
1.0899	0.7741	9.2051
0.7824	0.7454	9.3469
0.7872	0.5157	9.2727
1.0373	0.9015	9.0508
0.6742	0.5121	9.2075
1.1862	0.4552	9.1890
0.8512	0.8746	9.1555
1.0325	0.6167	9.3140
1.0086	0.7412	9.2596
0.9164	0.7424	9.0299
1.0851	0.6760	9.1017
0.8973	0.6347	9.1597
1.0457	0.6802	8.9683
0.8441	0.7137	8.8911
0.9147	0.5605	9.1064
0.8273	0.6837	9.0436
0.9715	0.6610	9.0071
0.7543	0.7561	9.0412
0.9147	0.6227	9.0353
0.8632	0.8512	9.0430
0.7836	0.5952	9.1435
1.0929	0.7687	9.2069
0.8034	0.6479	9.1603
1.1228	0.4349	9.1842
0.9410	0.8405	9.1764
0.9721	0.7418	9.0915
0.9954	0.6604	9.3385
0.8806	0.6317	9.2165
1.0403	0.7543	9.1890
0.9505	0.5773	9.2769
1.0241	0.5988	9.1651
0.9487	0.8506	9.0221
1.0175	0.6383	9.1830
0.8279	0.6993	9.2129
1.0576	0.8213	9.2243
0.8477	0.7884	9.3547
0.9553	0.5474	9.3224
1.0696	0.9733	9.1926
0.7089	0.7119	9.2518
1.0953	0.7256	9.3020
0.8022	0.9703	9.0903
1.0104	0.4403	9.2315
1.0068	0.8823	9.1357
0.8853	0.8064	9.0137
1.0415	0.6556	9.3864
0.9314	0.6921	9.2626
0.9314	0.7807	9.2596
0.9553	0.5342	9.4325
0.9212	0.6532	9.0502
0.8686	0.8429	9.0987
0.9912	0.6191	9.1423
0.8159	0.8722	9.1830
1.0522	0.7549	9.2721
0.8602	0.7830	9.2530
0.9966	0.6568	9.0592
1.0433	0.7968	9.1417
0.8997	0.5803	9.1507
1.0708	0.8608	9.2069
0.7819	0.8303	9.2943
1.0510	0.4086	9.2063
0.7872	0.9063	9.0173
0.9045	0.6114	9.1381
1.0080	0.7561	9.1968
0.9152	0.8423	8.8115
0.9308	0.6951	8.9120
0.9954	0.7412	8.8731
0.9499	0.8955	8.7702
0.9338	0.4804	8.8989
0.9888	0.8399	8.8833
0.7412	0.8674	8.7326
1.1408	0.5049	8.9240
0.7813	0.7328	8.9276
1.1300	0.6431	8.9025
0.9547	0.7789	9.0006
0.9081	0.6993	8.7571
0.9350	0.7280	9.0209
0.7675	0.5318	8.9222
1.0696	0.6808	8.8223
0.9679	0.5916	8.7954
1.0714	0.6012	8.7529
0.9607	1.1192	8.5495
1.0594	0.4606	8.8325
1.0660	0.6227	8.8283
1.2179	0.8566	8.3898
0.9649	0.8177	8.6925
1.0875	0.6622	8.7314
1.0295	0.7813	8.7798
0.8853	0.5803	8.6919
1.1420	0.8070	8.6159
0.7322	1.0253	8.6075
1.0875	0.4786	8.9030
0.8512	0.9314	8.5693
0.8758	0.6526	8.5675
0.8770	0.6120	8.8576
0.7454	0.4594	8.5794
0.9081	0.6682	8.7158
0.8542	0.4636	8.8289
0.9308	0.5342	8.8181
0.9117	0.5928	8.8229
1.0092	0.4074	8.8695
0.9242	0.8243	8.7679
1.0337	0.4128	8.8079
0.9117	0.4792	8.8815
1.0217	0.6251	8.5992
0.8859	0.6102	8.7565
0.9936	0.3745	8.8301
0.8674	0.8734	8.6219
0.7908	0.6269	8.7876
1.0702	0.6335	8.9114
0.7639	0.7854	8.6243
1.1043	0.4062	8.7876
0.9027	0.8154	8.8468
0.9655	0.7071	8.7451
1.0427	0.5073	9.0699
0.8566	0.5432	8.9772
0.9924	0.6293	8.9605
0.7926	0.4313	8.6961
0.9284	0.4750	8.0297
0.7436	0.6485	7.9752
1.0510	0.5940	8.0787
0.8249	0.7747	8.0243
1.0343	0.5737	7.8789
0.8022	0.8435	7.9459
1.1366	0.7795	8.0422
0.8237	0.4863	8.2504
0.8913	0.4762	8.3054
0.8877	0.7549	8.1158
0.7113	0.3272	8.0063
1.0588	0.5067	8.1673
0.6197	0.6066	7.8843
1.0451	0.2315	7.9035
0.8219	0.9452	8.0566
0.9380	0.2907	8.0500
1.0702	0.5982	8.3497
1.1025	0.7286	8.0255
0.9811	0.6580	8.3569
1.1456	0.6084	8.1625
1.0098	0.7131	8.0363
1.0086	0.5019	8.1451
1.0678	0.5162	8.1726
0.6323	0.8195	8.2175
1.1360	0.2195	8.1649
0.6072	0.7801	8.0488
0.9440	0.4277	8.1541
0.7914	0.6245	8.1158
0.7693	0.4026	7.8586
0.8991	0.5085	8.1954
0.9529	0.5468	8.0817
1.0002	0.6568	8.4484
0.9846	0.3882	8.3031
1.1198	0.7801	8.1475
0.8375	0.7178	8.0793
1.1653	0.2919	8.0440
1.0289	0.5581	7.8484
1.0163	0.5103	7.7880
0.8381	0.4379	7.9429
1.0672	0.5151	7.8819
0.8267	0.5186	8.1583
0.9619	0.2363	8.1015
1.0175	0.8118	8.1278
0.8465	0.4337	8.2803
1.0995	0.4451	8.3671
0.6305	0.7890	8.1391
1.0253	0.4056	8.4101
0.8189	0.5426	8.3491
0.8309	0.3488	8.1218
0.8542	0.3846	8.2989
0.8554	0.4445	8.1708
0.8560	0.2542	8.4227
0.9302	0.1813	8.2845
0.9290	0.5743	8.0937
0.9218	0.5659	8.4107
1.0839	0.3739	8.2947
0.9452	0.5844	8.3533
1.1773	0.2554	8.3569
0.8363	0.4953	8.2630
1.1497	0.5450	8.1774
0.8165	0.3362	8.4837
0.7920	0.5079	8.2020
0.7986	0.6820	8.3162
0.8279	0.1920	8.4370
1.0786	0.7053	8.3084
0.6514	0.4804	8.3186
1.0935	0.2518	8.4161
0.8219	0.6538	8.4143
0.9894	0.0646	8.4012
0.9846	0.4905	8.3246
0.9386	0.4211	8.2127
0.9697	0.1968	8.5716
1.0827	0.2351	8.0745
0.8644	0.4816	8.1571
0.9230	0.3356	8.2151
1.0026	0.4498	8.1649
0.8375	0.3805	8.4323
1.2132	0.1418	8.3647
0.6945	0.6927	8.2713
1.1007	0.1962	8.4711
0.8883	0.5898	8.2624
1.0361	0.4116	8.1463
0.9212	0.4923	8.5507
0.9284	0.5480	8.3025
1.0140	0.5013	8.6721
0.8931	0.3117	8.4753
0.9673	0.6586	8.2911
0.7890	0.4080	8.4843
1.1025	0.4959	8.2540
0.7274	0.8154	7.6995
1.0774	0.5007	7.8729
0.9458	0.5282	7.8466
1.1067	0.5569	7.6534
0.9757	0.3625	7.9298
1.0810	0.5204	7.8018
0.9218	0.7358	8.0129
0.9607	0.2865	8.0177
1.1832	0.6921	7.7467
0.6712	0.7466	7.8131
1.1527	0.3511	8.0183
0.7801	0.6814	8.0392
1.0851	0.2261	7.9477
0.7866	0.8333	8.0715
0.9697	0.5133	8.0075
0.9464	0.4798	8.0117
0.8800	0.4989	7.5122
0.9224	0.5713	7.4016
1.1659	0.6419	7.2383
1.0014	0.8387	7.1814
1.0995	0.5324	7.4805
1.3035	0.6179	7.4057
0.7029	0.8483	7.5242
1.2042	0.3266	7.6672
0.7836	0.8279	7.6379
0.9870	0.6156	7.6797
0.8626	0.6873	7.7473
0.8381	0.6945	7.5714
0.9392	0.6766	7.9603
0.9535	0.4600	7.9633
0.9152	0.8351	8.0961
0.7729	0.5091	8.0464
0.9936	0.4223	7.8036
0.7567	0.7125	7.4398
1.0528	0.3529	7.5481
0.9272	0.7370	7.5703
1.2102	0.4409	7.6588
1.0104	0.3164	7.7736
1.1779	0.7591	7.5374
0.8871	0.4068	7.9507
0.9858	0.5809	7.8526
0.8225	0.7208	7.9046
0.8459	0.6156	7.8670
0.9715	0.6670	7.8365
0.6502	0.5258	7.8873
1.2449	0.2752	7.9519
0.5641	0.7777	7.8987
0.9482	0.3015	7.9567
0.9320	0.6138	8.0698
0.9739	0.4361	8.0763
0.9799	0.2949	8.1798
0.9583	0.5868	7.7808
0.7765	0.5898	7.7988
1.2048	0.1854	7.4847
1.0708	0.6837	7.4363
0.8453	0.5306	7.6767
1.0534	0.3368	7.6313
0.7095	0.4995	7.7216
1.1509	0.2614	7.7383
0.6987	0.7687	7.7240
1.0768	0.5719	7.7587
0.9266	0.5731	7.8496
0.8596	0.5049	7.5571
0.9200	0.6275	7.9824
0.8554	0.6305	7.9340
0.9254	0.6700	8.0488
0.8818	0.4786	8.0279
0.9864	0.6461	7.7778
0.8536	0.7723	7.6014
1.2221	0.5216	7.6947
0.9057	0.7765	7.2789
1.1348	0.4295	7.4937
0.8333	0.6760	7.4877
1.0313	0.6676	7.3310
0.9320	0.3721	7.7754
1.0941	0.7047	7.5768
0.8692	0.6245	7.8203
0.9505	0.4331	7.7952
0.9601	0.6293	7.8646
0.7591	0.4768	8.0799
1.1940	0.6030	7.6743
0.4869	0.8674	7.4632
1.1378	0.1986	7.7204
0.8728	0.6048	7.5403
0.9326	0.5073	7.6498
0.9523	0.6365	7.7282
0.8447	0.5821	7.4871
0.9362	0.4469	7.6773
1.1354	0.3547	7.3447
0.8800	0.6820	7.2646
1.0971	0.2973	7.6211
0.9960	0.4498	7.4111
0.8345	0.5390	7.5870
1.1731	0.5719	7.5206
0.6455	0.7777	7.3872
1.2778	0.3272	7.5385
0.9631	0.6963	7.6612
1.0427	0.6197	7.6073
0.9673	0.6156	7.6265
0.7932	0.7382	7.3226
0.8297	0.6090	7.4662
0.8770	0.5665	7.6014
0.8082	0.6957	7.5679
0.8237	0.4774	7.4404
1.0325	0.5444	7.1784
0.8034	0.6550	7.0929
1.2616	0.2841	7.0211
0.8016	0.9470	7.1605
1.0851	0.2794	7.3986
0.8381	0.5539	7.2586
0.9613	0.5019	7.1976
0.8315	0.5139	7.2502
1.0265	0.5832	7.1013
0.8393	0.7047	7.4470
0.9679	0.6431	7.5033
0.8668	0.8560	7.1055
0.8925	0.5898	7.1898
1.0881	0.6754	7.2777
0.8967	0.6299	7.5068
1.2831	0.3440	7.2161
0.7723	0.8506	7.2616
1.0690	0.2937	7.3172
0.9954	0.7244	7.0953
1.1880	0.3464	6.9427
1.1264	0.3769	7.1910
0.9356	0.8070	6.6718
1.0307	0.4205	7.1066
1.2401	0.4977	7.3322
0.9284	0.6610	7.2053
1.1318	0.5575	7.3591
1.0804	0.8357	7.1072
0.8692	0.6299	7.3352
1.1677	0.6694	7.4046
0.6359	0.9320	7.2783
1.0732	0.5809	7.3298
0.7651	0.9697	7.3884
1.1599	0.4247	7.4069
1.1198	0.6999	7.5900
1.0044	0.6772	7.5158
1.0265	0.7980	7.8095
1.0409	0.7777	7.4859
1.0833	0.5216	7.3866
1.2191	0.3757	7.0073
0.9523	0.8297	6.7962
0.9984	0.4522	7.0355
1.2078	0.5982	6.9326
1.0750	0.6915	7.0983
1.3328	0.4211	7.1174
0.7525	1.0576	7.2012
1.3208	0.3840	7.2568
0.8979	0.8285	7.2658
1.0092	0.6161	7.2233
1.0134	0.7101	7.0743
0.8955	0.6664	6.8739
0.9936	0.4445	7.2341
1.0845	0.4080	7.1455
0.8189	0.5426	7.3226
0.8536	0.3272	7.0893
0.8907	0.4594	6.8016
0.9589	0.4098	6.8153
1.2790	0.0610	6.5713
0.6963	0.6191	6.4480
1.1366	0.0407	6.5629
0.9505	0.2943	6.5964
1.2060	0.2052	6.2745
0.9141	0.0826	6.5671
0.9673	0.3541	6.5832
0.8345	0.1926	7.0091
0.7693	0.3499	7.0313
0.7741	0.4552	7.0953
0.7041	0.3984	7.0684
0.8806	0.5210	6.9715
0.6778	0.3888	7.1689
1.1336	0.2417	7.3184
0.4774	0.7789	7.2203
0.9063	0.2674	7.3471
0.7178	0.6849	7.2400
0.9272	0.2829	7.2885
0.9499	0.1639	7.0935
0.9045	0.5533	6.8997
0.7304	0.0233	7.0737
1.0756	0.1579	6.8267
0.7866	0.3482	6.7011
0.9129	0.2435	6.8464
0.9655	0.2710	6.6825
0.5761	0.2668	7.1437
1.2550	0.0030	7.1120
0.6335	0.6419	7.3495
1.0666	0.2608	7.4129
0.7824	0.5264	7.2215
1.1892	0.1448	7.3842
1.0199	0.2118	7.4799
0.6981	0.5390	6.9631
0.7125	0.1573	7.5744
0.8500	0.3488	7.3663
0.7992	0.2704	7.4046
0.8572	0.2010	7.0576
0.7938	0.5174	6.7717
0.7460	0.2788	6.9505
1.1456	0.2985	6.8159
0.9362	0.5456	6.9248
1.1826	0.3212	6.8895
0.7430	0.6796	7.0432
1.1581	0.2399	7.1192
0.8201	0.4762	7.2430
0.8871	0.5868	7.1677
0.7340	0.4648	7.4117
0.8393	0.4522	7.2520
1.0708	0.4594	7.4117
0.9254	0.1717	7.4554
0.7370	0.7334	7.2526
0.7926	0.2333	7.6522
1.1145	0.3517	7.4901
0.8291	0.5354	7.5308
1.1485	0.0251	7.2562
0.8118	0.7693	7.2933
1.0732	0.1340	7.4010
1.0187	0.3972	7.4081
1.0947	0.3703	7.1635
0.8931	0.3320	7.2406
1.0833	0.3655	7.1683
0.9242	0.4367	7.4010
1.1587	0.3541	7.4171
0.8979	0.6156	7.4010
0.9685	0.6012	7.5840
1.1444	0.6120	7.3399
0.9619	0.6042	7.6797
1.4171	0.3075	7.7078
0.7190	0.8477	7.3268
1.1342	0.2261	7.5750
0.9697	0.5677	7.6540
1.0857	0.2489	7.6319
1.0959	0.1932	7.9082
0.8967	0.5390	7.4207
0.9685	0.2351	7.6863
1.0391	0.2345	7.0887
0.8459	0.3224	7.1072
1.0492	0.2638	6.9104
1.0421	0.2656	6.8751
0.7125	0.1914	7.3824
1.2586	-0.0628	7.1599
0.6861	0.4965	7.0971
1.0469	0.2656	7.1222
0.7448	0.4833	7.1826
1.1180	0.0897	7.4016
0.9123	0.2369	7.3968
0.7250	0.5067	7.0085
0.7400	0.4122	7.2885
0.8016	0.3374	6.9427
0.7980	0.3936	7.1222
1.0307	0.2327	7.1342
0.8130	0.5659	7.0636
0.7872	0.3362	7.2000
0.9894	0.2877	6.9565
0.7950	0.4146	7.0157
1.1133	0.1232	6.7495
0.6975	0.5366	6.9003
0.9625	0.1962	6.9194
0.9087	0.4445	7.1306
0.9529	0.6114	6.9068
0.8237	0.6072	7.2251
1.0708	0.6371	7.4267
0.8034	0.5115	7.4811
1.0391	0.3966	7.3717
0.8662	0.8088	7.1766
0.7723	0.7172	7.3058
1.0624	0.5366	7.3202
0.9087	0.5551	7.1970
1.1563	0.1454	7.2233
0.6652	0.8231	7.0468
0.9858	0.1250	7.2658
0.9493	0.5330	7.3836
1.1025	0.2937	7.3208
1.0504	0.1932	7.3310
1.0086	0.4696	6.8632
0.9099	0.1220	7.1641
1.1372	0.2967	6.8680
0.8112	0.4193	6.9290
0.9972	0.3428	7.1874
0.8698	0.3374	6.9009
0.7836	0.2219	7.3232
1.3579	0.0467	6.9415
0.6784	0.5396	7.0702
1.2969	0.1741	7.1449
0.8261	0.6694	7.2149
1.3244	0.0832	7.2753
1.1970	0.2034	7.4955
0.8919	0.4708	6.8907
0.9505	0.2991	7.4141
1.0594	0.3123	7.3609
0.9200	0.2662	7.3956
1.0684	0.0090	7.3340
0.8692	0.3517	7.1605
0.8303	0.1256	7.2359
1.0349	0.2985	7.0743
0.8979	0.4247	7.0863
1.0887	0.0532	6.8943
0.7926	0.5288	7.0708
1.1438	0.1202	7.1605
0.9182	0.4786	7.2885
1.1156	0.5204	7.0516
0.9547	0.5569	7.5714
1.0463	0.5462	7.5194
0.9948	0.2985	7.6193
1.0475	0.3523	7.4452
0.8494	0.5055	7.3746
0.9362	0.4337	7.4518
1.0086	0.3811	7.3405
1.0492	0.3894	7.5481
1.3358	0.1089	7.5409
0.7531	0.6766	7.7084
1.0265	0.2518	7.7808
0.8243	0.6179	7.7629
0.9882	0.2554	7.7234
0.9942	0.3057	7.7437
0.8674	0.6269	7.3082
0.7328	0.1842	7.6594
1.0283	0.4259	7.5045
0.7765	0.5994	7.5080
1.0014	0.4056	7.7707
0.8877	0.6156	7.5421
0.6909	0.3954	7.8837
1.3298	0.4439	7.5583
0.8106	0.7172	7.5302
1.2819	0.2590	7.6708
0.8644	0.7208	7.5068
1.4339	0.0449	7.6456
1.2419	0.2441	7.6492
0.9368	0.3272	7.2628
0.9069	0.3607	7.6384
0.8518	0.3793	7.5338
1.0122	0.2686	7.9358
0.9051	0.2255	7.7276
0.8022	0.5222	7.6552
0.8028	0.1956	7.4249
0.7376	0.4887	7.2765
0.8267	0.3828	7.4943
1.0660	0.1089	7.0684
0.5288	0.7083	7.5816
1.0827	0.1519	7.4686
0.6837	0.6628	7.4261
1.0923	0.3900	7.2891
1.0666	0.3685	7.4165
1.0241	0.4780	7.5116
0.9739	0.3954	7.6414
0.9972	0.4050	7.2885
1.0409	0.2943	7.3220
1.0917	0.1561	7.1880
0.8674	0.4427	7.2508
1.0642	0.1244	7.3669
1.0373	0.2040	7.3405
0.6461	0.2698	7.6504
0.9182	0.3679	7.5445
0.6239	0.5862	7.6540
0.8991	0.2608	7.5822
0.6993	0.5420	7.4584
0.8680	0.2273	7.4339
0.8530	0.5288	7.1653
0.7597	0.5749	6.9403
0.8052	0.2782	7.3435
0.8387	0.3763	6.7543
0.6670	0.4798	7.1868
1.0295	0.5162	7.3609
0.7872	0.6772	7.0648
0.9739	0.2417	7.1790
0.9505	0.3745	6.9236
0.5755	0.5127	6.7770
1.0002	0.3123	6.8285
0.5480	0.7376	6.9188
1.1647	-0.0221	7.1766
0.8686	0.4714	6.8608
0.8961	0.2584	6.8058
0.6568	0.4343	7.0869
0.7615	0.4265	6.9918
0.9224	0.1699	7.4955
0.8064	0.3553	7.3130
0.7406	0.3470	7.3052
0.7795	0.4259	7.0905
0.5587	0.6945	6.9517
0.8865	0.3428	6.8751
0.8895	0.6796	6.7663
0.6251	0.6963	7.2203
0.9129	0.4744	7.1126
0.5832	0.7537	7.4201
1.0714	0.2758	7.2855
0.5653	0.7920	7.2478
0.9745	0.4331	7.3154
0.7795	0.6024	7.5260
0.7801	0.7304	7.6319
0.8847	0.2471	7.6319
0.7029	0.5581	7.2095
0.7920	0.4696	7.3848
0.9649	0.1968	7.4416
0.9212	0.3308	7.0749
0.8542	0.2710	7.2831
0.9535	0.2620	7.2095
0.5701	0.4947	7.6456
0.9278	0.0999	7.1647
0.7400	0.6431	7.1252
0.9709	0.2931	7.2981
0.7830	0.6479	6.8811
0.8578	0.4983	6.9403
0.9942	0.4289	7.1252
0.9637	0.5061	6.8524
0.7501	0.4612	6.9439
0.8632	0.6592	6.8081
0.7729	0.7735	7.0199
1.1025	0.5575	7.2167
0.8818	0.6981	7.1437
1.0223	0.6257	7.0379
1.0295	0.7244	6.8578
0.7771	0.5043	6.9930
1.3137	0.3972	6.8632
0.8548	0.6030	6.8404
1.2808	0.1711	6.9212
0.7364	0.7089	6.8871
0.9218	0.1101	7.0420
1.0151	0.4385	7.1665
0.7202	0.4708	7.0067
0.8638	0.4373	7.0887
0.7902	0.6455	6.9954
0.7807	0.3739	7.2167
0.9164	0.5061	6.6436
0.7705	0.6520	6.5503
0.9864	0.5139	6.4139
0.7753	0.7131	6.4139
1.1366	0.3374	7.0151
1.0977	0.5677	6.5055
0.8710	0.7268	6.6807
1.1785	0.6108	6.2452
0.6108	0.8967	6.2542
1.2347	0.2315	6.3894
0.9093	0.6431	6.6951
1.1527	0.4110	6.8650
0.9709	0.6132	6.6765
0.9482	0.5157	6.7136
1.0558	0.3356	7.0402
0.8734	0.4223	6.8147
0.9254	0.4415	6.8614
1.0457	0.4367	6.7651
0.5928	0.6042	6.8022
0.8907	0.3404	7.0959
0.7669	0.3589	7.3070
0.5581	0.4265	7.5475
0.6652	0.3972	7.1132
0.5157	0.8345	7.1240
0.8106	0.4301	6.9374
0.7400	0.6969	6.7376
1.0678	0.4044	6.9296
0.7759	0.7603	6.9655
0.9739	0.5240	6.9673
1.0594	0.5635	7.0534
1.0235	0.4528	6.7501
1.0301	0.4762	6.8464
1.0445	0.5826	6.7405
1.0080	0.4816	7.0684
1.1635	0.3416	6.9499
0.9170	0.3900	6.9954
1.1527	0.3087	7.0480
0.8764	0.5390	6.8500
0.9158	0.5593	6.7465
1.0259	0.4026	6.6724
0.6413	0.4241	7.0869
1.1491	0.0772	6.9469
0.6269	0.5545	6.7830
0.9619	0.0861	7.0379
0.6227	0.4445	7.0803
0.9093	0.0144	7.1976
0.7495	0.2291	7.4727
0.7495	0.2752	7.3854
0.7226	0.5617	7.4698
0.7029	0.5647	7.1072
0.8177	0.3996	7.4141
0.9129	0.3637	7.0271
0.8429	0.4630	7.0121
0.9870	0.5240	7.0103
0.6808	0.7693	6.8650
1.0271	0.4738	7.3477
0.9105	0.5599	6.6903
0.7675	0.7017	7.3830
1.1898	0.5874	7.0408
0.5234	0.9607	6.9194
1.2401	0.3374	6.8680
0.7591	0.8602	6.9260
0.9141	0.4989	6.8219
0.7071	0.8728	6.9397
0.7585	0.8638	7.1479
0.8177	0.4893	7.1234
0.7866	0.5503	6.8016
0.7753	0.5456	6.7627
0.6939	0.4971	6.5503
0.6730	0.7029	6.4690
0.8094	0.4481	6.7663
0.8387	0.5474	6.7872
0.4510	0.5145	7.2831
0.7292	0.4146	6.9302
0.4534	0.8082	6.9721
0.9206	0.1890	6.8135
0.7322	0.8022	6.7609
0.9350	0.3607	6.7322
0.9135	0.4959	6.9451
0.8728	0.4487	6.5258
0.9158	0.2596	6.6634
1.0074	0.5133	6.2787
0.6197	0.4600	6.5150
0.8955	0.1549	6.6490
0.6467	0.3272	6.5019
0.6993	0.2608	6.9768
0.5803	0.2776	6.6676
0.5091	0.3715	6.8458
0.9571	-0.0173	6.8895
0.5264	0.4540	7.0504
0.9045	0.1992	7.0355
0.5073	0.7149	7.1449
0.7723	0.4534	7.3884
0.7513	0.3876	7.3818
0.7131	0.3535	7.2400
0.8716	0.3440	7.0373
0.6837	0.2548	6.9039
0.6401	0.4409	6.9122
0.9900	0.0514	6.9517
0.9129	0.4241	6.6418
0.7501	0.2794	6.7190
1.0140	0.1765	6.7914
0.7555	0.4020	7.0115
1.0851	-0.0233	6.8692
0.7735	0.4439	7.0265
1.0391	0.1370	7.0630
0.8399	0.3009	6.6323
0.7807	0.2381	6.2614
0.9410	-0.0814	6.5521
0.7579	0.4092	6.0843
0.5886	0.2034	6.4067
0.8255	0.0826	6.6071
0.5408	0.2303	6.7579
0.9691	0.1280	7.0337
0.5055	0.5713	6.5982
0.7484	0.4014	6.8392
0.9326	0.2818	6.6604
0.6251	0.4265	7.0456
1.2030	0.3111	7.0181
0.6802	0.6796	6.9218
1.1462	0.1615	7.0839
0.7819	0.5145	6.8327
1.0271	0.1065	6.8704
0.8662	0.1316	7.0612
0.7023	0.2740	6.8261
0.7866	0.1968	7.2855
0.6580	0.5408	7.0720
0.8100	0.2315	7.5176
0.8644	0.3721	7.3914
0.8339	0.4158	7.4219
0.9499	0.3135	7.1001
0.7549	0.6371	6.7950
1.0714	0.3242	6.9541
1.1127	0.2028	6.4660
0.8088	0.5354	6.7531
1.1061	0.2429	6.8040
0.7830	0.6616	7.1521
1.2496	0.1274	6.9128
0.8195	0.5342	7.0767
1.0092	0.5073	6.9326
0.9619	0.7143	7.3722
0.9272	0.6054	7.4434
0.9828	0.5826	7.7037
1.0211	0.6700	7.6480
0.9135	0.5151	7.4638
0.9852	0.5414	7.3543
0.8524	0.6718	7.0767
1.2425	0.2782	7.4051
1.0134	0.7035	7.1222
0.9248	0.5067	7.4309
0.9805	0.4618	7.4093
0.7687	0.6790	7.7874
1.1701	0.1627	7.4991
0.8339	0.8112	7.6719
1.1103	0.4504	7.5810
0.9499	0.7005	7.2095
0.9182	0.7555	7.2263
1.1186	0.3733	7.0576
0.9254	0.7382	6.8093
0.9236	0.5342	6.5114
1.0367	0.4941	6.2345
0.7406	0.6502	6.2345
1.2407	0.3996	6.3685
0.8943	0.7083	6.1423
1.1509	0.5826	6.3870
1.0600	0.6700	6.2237
0.9284	0.8381	6.6921
1.3693	0.4319	6.4414
0.7896	0.8106	6.6574
1.2993	0.2865	7.0091
0.8028	0.8142	6.6353
1.1198	0.1621	6.8775
0.9452	0.5396	6.9391
1.2748	0.5103	6.8590
1.1079	0.2650	6.8632
0.8477	0.6461	6.5665
0.9170	0.1657	6.7465
0.8865	0.3793	6.6257
0.8465	0.4331	6.9272
0.9170	0.3302	6.8698
0.7525	0.6891	7.1288
0.7184	0.4319	7.1946
0.9224	0.5097	7.1252
0.8459	0.6090	7.3687
1.0110	0.3027	6.9565
0.6449	0.7854	6.9128
0.9230	0.1980	6.6562
0.8632	0.4271	6.2967
0.9948	0.2052	6.1794
1.1031	0.4463	6.0430
0.9117	0.4289	6.1908
1.1282	0.4911	6.4181
1.0301	0.5276	6.2404
0.9356	0.3153	6.5228
1.2221	0.5491	6.5156
0.9242	0.4068	6.6897
1.0893	0.2937	6.8422
0.8100	0.4869	6.9625
1.0839	0.2865	7.0450
0.9876	0.5186	6.9595
0.8309	0.4534	7.2131
0.9834	0.5886	7.0175
0.6443	0.7549	7.2957
1.0768	0.3272	7.1228
0.6909	0.5180	7.0923
1.1814	0.1723	7.3280
0.6502	0.6461	6.8901
0.8704	0.0616	7.2406
0.8961	0.3164	7.2454
1.0241	0.3787	7.0989
1.0187	0.3446	7.4530
0.8142	0.5318	7.4428
0.7454	0.4241	7.2466
0.7705	0.5384	6.6933
0.9158	0.1490	7.1138
0.9936	0.3159	6.6167
0.9069	0.3811	6.8961
1.1665	0.2560	6.6927
0.8907	0.5312	6.4044
1.3005	0.2776	6.5599
1.1868	0.2979	6.3637
1.0122	0.4947	7.0845
1.0020	0.4002	6.4953
0.9236	0.6138	7.0283
1.3292	-0.0144	6.6466
0.9535	0.5145	6.9427
1.3280	0.1095	6.7567
0.9033	0.7083	6.8638
1.1779	0.2578	7.2155
0.9230	0.5880	7.1970
0.9410	0.1836	7.6049
0.9541	0.1795	7.2550
0.8602	0.3649	7.0624
0.8632	0.1777	7.2801
0.7824	0.5252	6.8865
0.7860	0.2273	7.2987
1.0140	0.3170	7.1031
0.9386	0.5174	7.2969
1.0397	0.3458	7.2700
0.8686	0.5432	7.3411
0.7729	0.4612	7.6660
1.1360	0.4875	7.4829
1.0337	0.6568	7.8036
1.2036	0.3045	7.1778
0.9206	0.8291	7.0857
1.1683	0.4122	7.0594
0.9194	0.6837	7.2095
1.1103	0.2853	7.0325
1.0546	0.8040	7.3082
0.9673	0.5832	6.9529
1.0594	0.6108	7.2317
0.9643	0.6365	6.9445
1.1348	0.7848	7.3776
1.1701	0.6233	7.3758
0.9356	0.6347	7.3382
1.0498	0.7489	7.2251
0.8979	0.8381	7.4004
1.2305	0.4977	7.5104
0.9691	0.6383	7.5230
1.0247	0.6281	7.5284
1.0744	0.6185	7.1389
0.8351	0.8082	7.5439
1.1653	0.5533	7.2604
0.8704	0.7220	7.5481
1.2748	0.3727	7.5637
0.8327	0.9416	7.2813
1.2467	0.4487	7.4799
0.9392	0.7543	7.1611
1.2036	0.5246	7.3543
1.1085	0.5396	7.3896
0.7890	0.7657	7.2012
0.8494	0.7627	7.6486
0.9266	0.7406	7.2155
0.8118	0.4696	7.7509
0.8112	0.5958	7.4662
0.7872	0.5844	7.6995
0.9434	0.7041	7.6199
0.6975	0.9691	7.3615
1.1013	0.4947	7.6289
0.9404	0.6760	7.1533
1.1079	0.7753	7.6073
1.1539	0.6120	7.0474
0.9775	0.8991	7.2143
1.1497	0.3505	7.0791
1.0092	0.7005	7.4243
1.3172	0.2961	7.2562
0.7807	0.9864	7.4997
1.2562	0.5569	7.3561
0.8106	0.8369	7.4626
0.9613	0.4397	7.6079
1.0062	0.6431	7.6510
1.1019	0.5886	7.7324
1.0851	0.5264	7.5140
1.0056	0.8106	7.7144
0.9960	0.5157	7.7264
0.9188	0.6359	7.3980
0.9296	0.4732	7.5816
0.9547	0.5803	7.3334
0.7316	0.5168	7.3382
0.8782	0.5515	7.4602
0.8351	0.6072	7.5547
1.0869	0.4816	7.7043
1.0696	0.6090	7.5780
1.1509	0.4744	7.6355
0.9069	0.7400	7.1910
1.0618	0.5689	7.2670
1.0343	0.5186	7.0355
0.6993	0.5521	7.2083
1.1503	0.2165	6.9870
0.6909	0.7113	7.4255
1.1049	0.2405	7.1467
0.6784	0.7495	7.5338
0.9446	0.1747	7.4536
0.6616	0.7830	7.5098
1.0421	0.3511	7.4279
0.9697	0.5749	7.4147
1.0373	0.4857	7.4207
1.0134	0.7035	7.6014
0.9918	0.6437	7.8634
0.9511	0.5354	7.7659
1.0349	0.6508	7.7641
0.9858	0.2770	7.6265
0.8297	0.7519	7.3100
0.8369	0.4816	7.3447
0.7980	0.5162	7.1994
0.7693	0.6873	7.3154
0.9912	0.5468	7.3088
0.7155	0.5809	7.4943
0.9416	0.6526	7.6193
0.7765	0.6598	7.6169
0.8919	0.5408	7.3076
0.7902	0.7866	7.2036
0.9697	0.4487	7.4404
0.9625	0.5671	7.2394
0.8471	0.5641	7.3758
1.1641	0.4881	6.9828
0.5360	0.8776	7.2221
0.8835	0.3972	7.0032
0.6197	0.8692	7.5206
0.9595	0.2572	7.2311
0.6574	0.9224	7.3890
1.0241	0.4648	7.1952
0.5623	0.8764	7.1437
0.8871	0.5438	7.1330
0.6760	0.6891	7.2484
0.9368	0.3541	7.2538
0.7795	0.5162	7.4309
0.8518	0.5174	7.5248
0.8584	0.6203	7.3154
0.7627	0.6341	7.2077
0.9727	0.3619	7.3573
0.7819	0.6951	7.2197
1.0863	0.4158	7.4440
0.9135	0.7926	7.2281
0.8716	0.6317	7.5870
0.9739	0.6766	7.5966
0.8506	0.5815	7.7497
0.9135	0.6730	7.2454
0.8094	0.7346	7.2664
1.2808	0.5653	7.1689
0.7376	0.7621	7.0199
0.9691	0.6849	6.7178
0.7430	0.6173	6.4953
1.1671	0.4857	6.9631
0.9176	0.4158	6.6077
1.0044	0.7280	7.1539
1.2054	0.5635	6.8590
0.7980	0.8794	7.2807
1.0600	0.6275	7.0253
0.7956	1.0026	7.4518
1.3376	0.4475	7.0618
0.9936	0.7681	7.2939
1.3860	0.4355	7.3358
0.9781	0.9470	7.4093
1.1832	0.6341	7.6492
1.0570	0.6054	7.7533
1.0205	0.4349	7.9064
1.0068	0.4295	7.7641
0.8841	0.7442	7.6438
0.8823	0.5348	7.5332
0.8674	0.5731	7.3130
0.9511	0.4295	7.5703
0.9458	0.6790	7.3609
0.8524	0.6772	7.5050
0.9948	0.6598	7.4063
0.7693	0.6508	7.6654
0.9894	0.4869	7.7318
0.8752	0.5420	7.7766
0.7639	0.6132	7.9980
0.9960	0.6670	7.7413
0.8865	0.7316	7.7431
1.0295	0.5689	7.4422
0.6975	1.0463	7.5254
1.2538	0.4714	7.5248
1.1139	0.9374	7.1527
1.4189	0.3523	7.0947
1.0995	0.6431	7.1814
1.2114	0.4074	6.9577
1.1438	0.4833	7.1300
1.2425	0.3882	6.9756
1.0092	0.4839	7.1617
1.0271	0.6538	6.9236
0.8094	0.5174	7.2682
0.9852	0.5821	7.4111
0.8387	0.3775	7.4452
1.1366	0.4510	7.4638
0.7717	0.5151	7.4793
0.9834	0.5180	7.5475
0.8309	0.7065	7.4686
1.0373	0.5258	7.4692
1.0008	0.5779	7.2233
0.9727	0.4917	7.2777
1.0857	0.5719	6.8901
0.7633	0.5946	7.1868
0.9727	0.2943	6.9368
0.6389	0.6754	6.9433
1.1569	0.1166	6.9368
0.7633	0.7866	7.0379
0.9093	0.4881	7.0552
0.6395	0.7765	7.4973
0.7980	0.5647	7.4057
0.7382	0.7113	7.6067
1.0247	0.3356	7.5846
0.8937	0.4211	7.5613
0.8136	0.3828	7.3094
0.8076	0.6078	7.5427
0.8231	0.5013	7.1635
1.0516	0.3882	7.6229
1.0929	0.5653	7.5469
0.9763	0.3727	7.6211
1.3238	0.6227	7.4829
0.9105	0.5486	7.6702
1.3089	0.4768	7.9274
0.9416	0.4624	7.8849
1.3531	0.4205	7.9884
1.0193	0.4026	7.8245
1.2209	0.3948	7.6498
1.0457	0.4833	7.7240
1.1474	0.5204	7.7431
1.1342	0.6036	7.5984
1.2520	0.3954	8.0093
1.3053	0.3505	7.8640
1.1737	0.6150	8.0255
1.4500	0.3362	7.9986
1.0558	0.6000	8.1027
1.3304	0.4857	8.0530
1.0648	0.7513	8.2528
1.3160	0.4337	8.1272
1.0157	0.9009	8.1463
1.0750	0.5587	8.1966
0.7101	0.9099	7.8191
0.8680	0.6096	7.8616
0.7759	0.6329	7.7533
0.6299	0.5683	7.4632
0.9117	0.5432	7.4644
0.7824	0.6520	7.4165
0.8315	0.5773	7.5284
0.7753	0.7621	7.1384
0.9236	0.6855	7.5828
0.9075	0.7286	7.5732
1.0379	0.4833	7.6205
1.1103	0.5850	7.5906
0.9595	0.3242	7.3998
1.1737	0.6754	7.3633
1.0128	0.3248	7.0187
1.1007	0.2058	7.0474
0.8189	0.0215	7.0720
1.0199	0.0514	7.1366
0.6861	0.2668	6.7818
0.7131	0.2764	7.0014
0.8381	0.2261	7.1623
0.6024	0.1609	7.3818
1.0618	0.2500	7.3029
0.7232	0.4355	7.7318
0.8710	0.1771	7.3322
0.6682	0.5037	7.5116
0.9673	0.5043	7.0050
0.7370	0.8806	6.9900
1.1174	0.3846	7.2107
0.7430	0.7166	7.0390
0.8734	0.6287	6.9200
0.7077	0.6120	6.7399
0.6233	0.5755	6.6257
0.7125	0.5515	6.7681
0.5928	0.4187	6.6406
0.7675	0.4307	6.7388
0.7286	0.5162	6.3828
0.6574	0.4211	6.7818
0.7202	0.5940	6.9565
0.6490	0.4068	7.0773
0.9206	0.5234	6.9996
0.8369	0.2841	6.8446
0.9637	0.4146	6.7597
0.7460	0.4439	6.4678
0.7143	0.4439	6.4474
0.4983	0.5127	6.3463
0.8052	0.2213	6.7944
0.6724	0.1567	6.4809
0.5982	0.4181	6.8686
0.6945	0.4373	6.9948
0.5815	0.6072	7.2353
0.8339	0.4044	6.9643
0.7041	0.7585	7.2341
1.0229	0.2656	7.1144
0.6048	0.6496	6.8452
0.8638	0.3117	6.8919
0.7819	0.4768	6.6502
0.9033	0.0185	6.6526
1.0062	0.3882	6.9039
1.1228	0.3075	6.6490
0.9727	0.2722	7.1473
1.0319	0.3870	7.0008
0.8686	0.4648	7.4931
1.0205	0.4433	7.3483
0.9087	0.4851	7.4554
1.1826	0.4780	7.3292
0.9099	0.4169	7.3465
1.1324	0.5360	7.7222
0.8692	0.4427	7.5391
1.1701	0.4672	7.5547
0.9356	0.5067	7.5493
0.9834	0.3978	7.6044
0.8423	0.5635	7.4871
0.8596	0.4720	7.5493
1.0301	0.4331	7.6911
0.7585	0.3344	7.7533
1.2831	0.2285	7.7844
0.6550	0.6520	7.6624
1.0630	0.3906	7.6983
0.8022	0.7489	7.9878
0.9745	0.3739	7.8077
0.9380	0.8393	8.0530
1.0492	0.5354	7.9447
0.9870	0.5832	7.8580
0.8094	0.6837	7.8251
0.9236	0.6975	7.9657
0.7974	0.7394	7.4369
1.0612	0.3362	7.6169
1.0002	0.5151	6.9535
0.7388	0.4780	7.1844
0.8010	0.5414	7.0558
0.4564	0.5826	7.1431
0.9799	0.4881	7.4004
0.7525	0.5892	7.3645
1.2544	0.3338	7.6731
0.8919	0.5892	7.4189
1.0211	0.6562	7.5427
0.8387	0.7011	7.3705
0.7125	0.6221	7.5661
0.9607	0.7220	7.3860
0.7819	0.7232	7.6038
1.1013	0.5025	7.2837
0.7358	0.9482	7.5045
1.2233	0.5294	7.4458
0.7914	0.7920	7.3842
1.2090	0.3117	7.5469
0.9667	0.5886	6.9045
1.0104	0.5300	7.0486
1.1563	0.7107	7.2377
0.7926	0.7549	7.0151
1.1228	0.6161	7.5846
0.9559	0.7968	7.4261
1.0385	0.5946	7.9495
1.0636	0.8596	7.8502
0.9368	0.5940	7.8059
0.9452	0.7669	7.4117
0.6849	0.6263	7.6361
1.1653	0.6030	7.6462
0.7077	0.8154	7.4865
1.0409	0.7699	7.4117
0.7454	0.7860	7.2143
0.9960	0.6712	7.4853
1.0439	0.6293	7.0570
1.0983	0.7962	7.4901
1.1372	0.3918	7.3196
0.8812	0.9003	7.5212
1.2317	0.5234	7.4004
0.8022	0.9607	7.5104
1.3304	0.4343	7.4291
0.9147	0.7980	7.4931
1.1844	0.5569	7.4626
0.8387	0.9212	7.5212
1.0146	0.6556	7.8843
0.8542	0.8148	7.9609
0.9075	0.8339	8.1403
0.9350	0.5270	8.1894
0.8249	0.8291	7.9555
0.8070	0.6144	7.8430
0.8638	0.7394	7.7132
0.6909	0.5958	7.8454
0.9380	0.4971	7.7060
0.7699	0.7753	7.3848
0.9230	0.6383	7.1874
0.7627	0.7226	7.3142
0.6245	0.5689	7.4644
0.9410	0.5563	7.5870
0.7711	0.7304	7.6779
1.1091	0.6604	7.8167
0.8518	0.8530	7.9304
1.0582	0.6849	7.6014
0.8788	1.0223	7.9687
1.0792	0.5264	7.7689
0.8841	0.7747	7.6067
1.0917	0.5988	7.3178
0.6239	0.7077	7.1545
0.8465	0.6203	6.9314
1.0086	0.3631	7.1569
0.8477	0.5707	6.8781
0.8967	0.3224	7.1844
0.8566	0.5258	6.8674
0.6054	0.4690	6.9445
0.7956	0.5761	6.8883
0.5503	0.5270	7.0498
1.0367	0.4684	7.2945
0.6221	0.5958	7.2018
0.8913	0.4379	7.1300
0.5713	0.7065	6.9415
0.5832	0.4062	7.1348
0.7519	0.5677	6.8183
0.6903	0.6138	7.1461
1.0134	0.3852	7.1049
0.4277	0.7854	7.2383
0.7801	0.4181	7.1958
0.4744	0.7585	7.0295
0.9697	0.2465	7.3920
0.7430	0.7866	7.1013
0.7944	0.4301	7.1288
0.6138	0.5162	6.9409
0.4833	0.7765	6.8105
0.8357	0.3153	7.0678
0.6066	0.4965	6.7627
0.7777	0.5910	7.0241
0.7681	0.7256	6.7585
0.5994	0.6072	7.2281
0.7878	0.6520	7.1760
0.7824	0.5503	7.5744
0.7717	0.3691	7.5344
0.7065	0.6837	7.3615
0.7358	0.5527	7.2239
0.6855	0.5115	6.9547
0.8818	0.5521	7.0791
1.0498	0.1490	6.9206
0.5563	0.7603	6.5952
0.9487	0.3416	6.3487
0.7974	0.3667	6.2967
1.0421	0.2554	6.1573
0.8309	0.3649	6.4863
0.7083	0.4863	6.3134
0.5557	0.4929	6.7214
0.7268	0.5145	6.6251
0.7615	0.3721	6.8716
0.9990	0.4349	6.7543
0.6592	0.3775	6.8159
0.9170	0.2907	6.9870
0.5605	0.3434	6.9218
1.0792	0.0532	7.2394
0.9601	0.0885	7.0169
0.8028	0.3057	6.8787
1.1814	0.1292	6.7082
0.5994	0.6281	6.8147
1.2484	0.0802	6.8381
0.8321	0.4929	6.9027
1.2299	0.2375	7.2371
0.8835	0.5258	7.0911
1.0235	0.3912	7.3633
1.0528	0.3176	7.3818
1.0068	0.4289	7.4680
0.9410	0.3308	7.2616
0.9715	0.3176	7.0367
0.8841	0.5521	7.1395
1.0193	0.1681	6.9176
1.0187	0.5964	6.9427
0.8823	0.3960	6.9721
0.9822	0.3176	6.6550
0.6879	0.7190	6.6060
1.3340	0.0389	6.7591
1.0439	0.6383	6.3864
1.1934	0.2608	6.5563
0.9416	0.2321	6.3457
0.8674	0.4875	6.1531
1.2813	0.1268	6.3505
0.7830	0.5234	5.9252
1.0086	0.2644	6.1154
0.9769	0.2889	6.0759
0.8973	0.2979	6.4941
0.8913	0.3027	6.6747
0.7717	0.4397	6.9577
0.9015	0.4241	7.1724
1.0205	0.4158	6.9098
0.8698	0.4313	7.2849
1.0415	0.1795	6.7334
0.7256	0.6508	6.5862
1.0169	0.1968	6.3409
0.8686	0.0993	6.4307
0.6927	0.0257	5.9784
1.1533	-0.2351	6.2745
0.7705	0.1412	5.2869
0.9057	-0.0030	5.8109
1.1318	-0.1783	5.3090
0.8494	0.0855	5.1350
1.2359	0.0251	5.2409
0.7687	0.2267	4.9776
0.8895	0.1890	5.5041
1.0385	0.0879	5.2373
0.8488	0.2961	5.7739
1.0654	-0.0604	5.6052
0.7178	0.3793	6.1764
1.0816	0.1059	6.1220
0.7968	0.3224	6.0765
1.1444	0.1747	6.0012
0.9099	0.1968	6.1346
0.8453	0.4804	6.1328
0.7280	0.3159	6.5150
0.8853	0.3063	6.3463
0.6843	0.3912	6.5288
0.8070	0.3583	6.5910
0.6437	0.6754	6.5736
0.4642	0.4564	6.7639
0.8512	0.5970	6.5144
0.5007	0.8417	6.5826
0.9834	0.4899	6.6957
0.5755	1.0582	6.6221
1.2179	0.5587	7.0426
0.8841	0.8297	6.9350
1.0720	0.7250	7.0115
1.0469	0.5731	6.8692
0.8255	0.8488	6.7023
1.2126	0.5210	6.9679
0.9123	0.6825	6.5407
0.8148	0.7555	6.5856
0.7717	0.6347	6.5467
0.7256	0.6604	6.5994
0.7573	0.6335	6.7615
1.0780	0.4576	6.7938
0.6138	0.7250	7.1431
0.9984	0.6592	7.0325
0.8375	0.9242	7.1078
1.0774	0.5049	7.1724
0.9733	0.7639	7.0032
1.0923	0.5228	6.9326
1.0756	0.6197	6.5366
0.9129	0.7418	5.8977
1.2024	0.2686	6.4570
1.2873	0.3996	5.6428
0.9793	0.4140	5.9216
1.0863	0.2859	5.7667
0.7801	0.4576	5.7302
1.1085	0.3099	6.1214
1.0415	0.6915	5.6590
0.9577	0.5874	5.8253
0.9601	0.3577	5.7021
0.8530	0.7585	6.4145
0.9960	0.3870	6.4295
0.7914	0.9021	6.6658
1.1629	0.5665	6.5892
0.7675	0.6981	6.8261
0.8740	0.6251	6.7848
0.8764	0.4875	6.9990
1.0606	0.6730	6.5551
0.9033	0.5240	6.6975
1.1055	0.4433	6.7657
0.8309	0.5617	6.6448
1.1168	0.2375	6.6191
0.7842	0.6227	6.4361
0.8130	0.5246	6.5725
0.9805	0.4403	6.5689
0.6802	0.4822	6.7645
1.1515	0.2608	6.8446
0.6437	0.8285	6.8973
1.1156	0.5115	7.3776
0.8028	0.7262	7.4835
0.9565	0.6951	7.6708
0.7962	0.5204	7.6983
0.9284	0.6425	7.7970
0.9314	0.6885	8.0949
0.8154	0.6215	7.9806
0.9948	0.8016	7.9974
0.6508	0.7448	7.9627
1.0624	0.6072	7.9663
0.6975	0.8859	7.9758
1.1450	0.3715	8.2618
0.7107	0.9840	8.2989
1.1103	0.7352	8.4711
0.9332	0.6993	8.5178
1.1085	0.7244	8.5208
1.0193	0.6634	8.5495
1.0851	0.7974	8.6500
1.0648	0.9057	8.5232
0.8740	0.6730	8.5387
1.2096	0.7741	8.5387
0.6437	0.9918	8.4873
1.2048	0.5162	8.6823
0.9111	0.9015	8.8600
1.0690	0.6652	8.9455
0.8638	0.9757	9.0059
1.0169	0.8195	8.9838
0.8453	0.7107	9.0353
1.0002	0.6502	9.1190
0.9739	0.8303	8.9138
0.7226	0.5892	8.9904
1.1049	0.6766	8.8031
0.6473	0.9141	8.5878
1.1288	0.4552	8.7996
0.8387	0.8267	8.8995
1.1874	0.7065	8.6859
0.8058	0.7657	8.9186
1.0415	0.7836	8.9527
0.8716	0.7998	8.9671
1.0151	0.5797	9.0083
1.0229	0.9266	8.7756
0.7166	0.9218	8.6979
1.2712	0.7274	8.7679
0.8291	1.0965	8.4006
1.2371	0.9308	8.2408
0.9039	1.0343	8.4335
1.0229	0.9493	8.3617
0.9822	0.9266	8.4484
0.9655	0.8602	8.2642
0.8554	0.8518	7.9693
0.9583	0.6000	8.2594
1.1838	0.4080	7.8125
0.9105	0.9870	8.0991
1.2939	0.5145	8.2205
0.8094	1.0146	7.9842
1.2550	0.9081	8.2642
0.8477	0.8584	8.0560
1.1497	0.8441	8.3138
0.9117	0.8812	8.3377
0.9739	0.7771	8.4711
0.8644	0.9470	8.2911
0.9619	0.8818	8.5453
1.0738	0.6150	8.3473
1.0271	0.8333	8.5633
1.2054	0.6455	8.2863
0.8136	0.9314	8.2701
1.1707	0.5994	8.5208
0.9643	0.7890	8.3665
1.2622	0.6425	8.4532
1.0875	0.7442	8.4012
1.0020	0.9117	8.2558
0.9906	0.6706	8.2528
1.2377	0.6449	8.4759
1.0582	0.7633	7.9381
0.9015	0.9571	8.2516
1.0923	0.5940	7.8741
0.8578	0.8345	7.6731
1.1749	0.7346	7.7120
1.0265	0.6957	7.4889
1.0157	0.8997	7.1862
1.0774	0.8171	7.0426
1.0259	0.7753	7.1150
0.9464	0.7789	6.8410
1.1061	0.6419	7.0026
1.0528	0.7561	6.5276
0.6885	0.9858	6.2596
1.0098	0.3625	6.3595
1.0068	0.2901	6.0347
0.9170	0.7573	6.0712
0.8997	0.3350	6.1429
0.8674	0.5826	6.1244
0.8058	0.7364	5.5968
0.9422	0.5318	6.1076
1.0702	0.3123	5.6560
0.7884	0.6060	5.8432
1.0247	0.5922	5.9390
0.8201	0.6245	5.7858
1.0020	0.6658	5.5579
1.0941	0.4851	5.7697
0.8818	0.6532	5.6805
0.8656	0.7717	5.4275
1.0516	0.4056	5.8271
1.2018	0.4229	5.6159
0.9248	0.6736	5.7356
1.2066	0.4193	5.7362
1.1432	0.4469	5.6584
1.0134	0.8500	5.5077
1.0863	0.3978	5.6632
1.0708	0.4690	6.0311
0.8542	0.8082	5.6375
0.8770	0.6694	5.9467
0.9948	0.2207	5.9485
0.7591	0.7178	5.5729
0.9380	0.6562	5.6297
0.9290	0.3224	5.8702
0.9398	0.5677	5.4879
0.8267	0.6820	5.4801
0.8148	0.4163	5.8893
0.8668	0.3535	5.3802
0.7854	0.5856	5.7080
0.9248	0.4181	5.7960
0.7872	0.4732	5.8020
0.9900	0.6538	5.8277
0.9105	0.5468	5.8474
0.9027	0.5910	6.0921
0.9505	0.6604	6.0125
1.1324	0.4971	6.4636
1.1450	0.4552	6.3122
0.9601	0.7166	6.5587
1.0899	0.4516	6.4977
1.0941	0.5342	6.5796
1.0774	0.7388	6.6179
1.1617	0.4714	6.6735
1.1270	0.4020	6.7758
0.8913	0.5677	6.4911
1.2945	0.5300	7.0546
1.0163	0.4427	6.9039
0.9834	0.8303	6.8105
1.1408	0.6132	6.8931
0.8375	0.4732	6.8572
1.2114	0.7645	7.1641
0.9787	0.7478	7.1192
1.0648	0.7495	7.4046
0.7801	0.7657	6.9756
1.1186	0.5204	7.3005
0.8016	0.6132	7.3142
0.6610	0.5970	7.2664
1.0349	0.6389	7.2729
0.9236	0.5258	7.1300
0.9314	0.7065	7.1372
0.8112	0.6730	6.8865
1.1396	0.3864	7.2221
0.7597	0.6299	7.0851
1.0385	0.5174	7.0408
0.9601	0.6006	7.0522
0.7394	0.5755	6.9320
0.9523	0.7454	6.8596
0.8620	0.6586	6.7411
0.9727	0.5988	7.1413
0.7699	0.7507	7.0038
0.9715	0.5378	7.1360
1.0558	0.4935	7.2520
0.6724	0.5557	7.2478
1.1671	0.7759	7.3208
0.9338	0.8028	7.4147
1.0851	0.6353	7.7718
0.9434	0.9410	7.5122
1.0726	0.6532	7.8951
1.0618	0.7119	7.9513
0.7495	0.8189	7.9286
1.2179	0.7190	7.9489
0.9464	0.7842	7.9244
1.1659	0.6921	8.0745
1.0672	0.9164	8.1068
1.0157	0.6891	8.2552
1.0905	0.8734	8.2899
1.0122	0.7585	8.2295
1.2831	0.6778	8.3712
0.7723	0.8429	8.2097
1.0845	0.9081	8.3186
1.0068	0.9272	8.1188
0.9781	0.6616	8.5824
1.0929	0.7454	8.2797
0.8901	0.6849	8.5399
1.2012	0.4600	8.7188
0.7854	0.7358	8.6434
1.0325	0.6526	8.7409
0.9135	0.8339	8.6697
0.7974	0.5731	8.9503
1.0953	0.6473	8.7613
0.7388	0.7872	8.8067
1.0726	0.5426	8.8845
0.9272	0.8315	8.6440
0.9404	0.6939	8.7397
0.9864	0.7639	8.8612
0.8560	0.7077	8.8833
1.0618	0.6616	8.7272
0.8548	0.7400	8.6117
1.0576	0.6592	8.7074
0.9793	0.8231	8.7607
0.9260	0.7172	8.8331
1.0905	0.6855	8.6841
0.8375	0.6347	8.9689
1.0726	0.5623	8.8450
0.9033	0.8339	8.6159
1.0421	0.7813	8.6512
1.0666	0.7908	8.6745
0.9948	0.7322	8.7816
1.1276	0.6933	8.7038
0.9793	0.8010	8.5387
0.9517	0.7633	8.7224
1.0104	0.8136	8.5986
1.0211	0.7830	8.7691
1.0421	0.7328	8.8516
0.9667	0.7878	8.8929
1.1025	0.6760	8.9593
1.0917	0.7531	8.8259
1.0134	0.8345	8.6817
1.0355	0.7023	8.7475
1.0457	0.7053	8.9294
1.0373	0.6586	8.9994
0.9954	0.6897	8.8797
0.9464	0.7525	8.8797
0.9404	0.6939	8.7625
1.0295	0.6496	9.1675
0.9350	0.6814	9.1621
0.9547	0.6580	8.9539
0.9284	0.8488	9.0083
0.9302	0.7113	9.1692
1.0217	0.6766	9.2775
0.8812	0.7501	9.2117
0.9511	0.6233	9.0951
0.9434	0.8159	9.0873
0.8285	0.7322	9.0723
1.0624	0.7328	9.1244
0.9631	0.7430	9.2171
0.9553	0.6245	9.1710
1.0038	0.7537	9.1453
0.9422	0.6377	9.1501
1.2257	0.5964	9.3667
0.8022	0.7621	9.4025
1.0750	0.6694	9.3015
0.9864	0.7872	9.2775
0.8590	0.7537	9.1507
1.1438	0.6413	9.4271
0.8997	0.8171	9.4450
1.0140	0.6748	9.2422
1.0403	0.8195	9.3116
0.8267	0.7711	9.1525
1.0941	0.6383	9.2482
0.9482	0.8411	9.3930
0.9290	0.6927	9.2919
1.1079	0.7609	9.3888
0.7364	0.8076	9.1011
1.0851	0.5109	9.3529
1.0157	0.7956	9.4211
0.9158	0.8136	9.4205
1.2359	0.6467	9.5336
0.7759	0.8776	9.3200
0.9027	0.5701	9.2494
1.1856	0.7549	9.2889
0.8417	0.8722	9.4552
1.1743	0.5312	9.4863
0.8943	0.9272	9.3457
0.8477	0.7334	9.1974
1.0498	0.6479	9.4271
0.7418	0.8530	9.2979
0.9882	0.5838	9.3882
1.0247	0.6987	9.5653
0.7747	0.7615	9.3762
1.1330	0.5797	9.5090
0.9117	0.7902	9.2973
0.9129	0.6526	9.3403
1.0169	0.6383	9.3529
0.8297	0.7711	9.3361
1.0576	0.5731	9.4713
0.9900	0.7675	9.4229
0.9505	0.7597	9.4253
1.1067	0.7047	9.5180
0.8782	0.7095	9.5413
1.0331	0.6496	9.4660
1.0307	0.7484	9.5497
0.8638	0.7699	9.4061
1.0798	0.7484	9.3906
1.0319	0.8070	9.2219
0.9535	0.7166	9.2554
1.0600	0.7657	9.2249
0.9428	0.7753	9.3086
1.0080	0.6790	9.3619
1.0630	0.7765	9.3547
0.9799	0.8405	9.3553
1.0558	0.6156	9.3170
1.0642	0.7149	9.2075
1.0235	0.7836	9.2973
1.1970	0.6413	9.3649
0.9655	0.7747	9.3355
1.0223	0.7083	9.3924
1.0193	0.4893	9.4689
0.9350	0.6604	9.4582
0.9691	0.7669	9.4833
0.9302	0.6371	9.3900
0.8889	0.6688	9.3397
0.8847	0.9057	9.4043
0.9170	0.5587	9.3194
0.9284	0.7328	9.4965
0.8704	0.8237	9.6191
0.9996	0.5719	9.4510
0.9948	0.7388	9.6191
0.9111	0.6855	9.5928
0.9942	0.5491	9.5210
1.0857	0.7543	9.5455
0.9356	0.7256	9.4474
1.0708	0.6467	9.3834
1.0457	0.8477	9.4558
0.9685	0.7400	9.2590
1.0582	0.6550	9.5437
0.9805	0.8823	9.5144
1.1946	0.7388	9.3804
1.1844	0.6568	9.6544
0.9152	0.7968	9.4672
1.0618	0.7184	9.4438
1.1127	0.6335	9.6131
0.8082	0.7771	9.3834
0.9787	0.7992	9.4815
1.0642	0.6825	9.2913
0.8602	0.6987	9.1346
1.0642	0.7537	9.1645
0.9817	0.7591	9.1058
0.8961	0.7256	8.9246
1.0959	0.6251	9.1178
0.9458	0.7448	9.0783
0.8746	0.6909	9.0424
1.0086	0.6275	9.2297
0.8506	0.6616	9.1848
0.8782	0.6054	9.1005
0.9458	0.5252	9.3762
0.8381	0.6873	9.2985
0.9278	0.6036	9.2811
0.9344	0.5539	9.4217
0.9380	0.7561	9.3433
1.0522	0.5665	9.4181
1.0116	0.5904	9.3439
1.0169	0.8034	9.4139
0.9302	0.5097	9.4618
0.9978	0.6263	9.3726
1.0660	0.7926	9.3667
0.9715	0.6802	9.4863
1.0151	0.6939	9.3601
1.0241	0.8459	9.3948
0.9840	0.8465	9.4301
1.1013	0.7310	9.4031
1.1180	0.7890	9.3876
1.0379	0.8818	9.2949
1.2149	0.6927	9.3673
1.0678	0.7573	9.4408
0.9511	0.8788	9.4301
1.0594	0.7693	9.4354
1.0929	0.6126	9.4761
0.9757	0.8632	9.3607
1.1067	0.7071	9.3032
1.0989	0.6209	9.6317
0.8662	0.7717	9.3876
1.0187	0.7083	9.4468
1.0433	0.5617	9.6155
0.8339	0.7334	9.4612
1.0463	0.7280	9.3493
1.0654	0.6473	9.5976
0.8429	0.6993	9.3720
1.0481	0.7394	9.3822
0.9769	0.5779	9.6442
0.8219	0.6861	9.3631
1.0875	0.7621	9.3690
1.0199	0.7047	9.4791
0.9625	0.7190	9.4343
1.0313	0.8859	9.4037
0.9452	0.8249	9.4025
0.9482	0.7346	9.5126
0.9595	0.7418	9.3487
1.0229	0.7352	9.4725
0.9547	0.6604	9.5377
0.9924	0.6855	9.4492
1.0098	0.7717	9.4438
1.0618	0.6431	9.4899
0.9858	0.6927	9.5168
1.0140	0.7155	9.5192
1.0157	0.7029	9.5270
1.0008	0.7968	9.5264
1.0026	0.7789	9.3290
1.0552	0.6772	9.5665
1.0241	0.7220	9.4707
1.0552	0.8405	9.4875
0.9960	0.6897	9.6472
0.9673	0.7418	9.3702
1.0086	0.8770	9.4582
0.9781	0.5396	9.5204
1.0869	0.6293	9.7052
0.9541	0.8847	9.5353
0.9888	0.6532	9.4875
0.9667	0.7155	9.4277
0.9577	0.7017	9.3744
0.9721	0.5910	9.3517
0.9811	0.5886	9.5234
0.8692	0.7819	9.4594
0.9703	0.7478	9.3816
0.8285	0.7149	9.4468
0.8692	0.6951	9.4845
0.9428	0.7902	9.2452
0.9984	0.7561	9.4390
0.9290	0.5785	9.4851
0.9900	0.6951	9.4666
1.0128	0.6096	9.4707
0.9099	0.5617	9.4187
0.8883	0.6479	9.2937
0.9314	0.6311	9.2177
0.9290	0.5384	9.3738
0.9147	0.5539	9.2021
0.9344	0.6951	9.3170
0.9039	0.5366	9.3350
0.8315	0.5372	9.4259
0.8094	0.6592	9.4516
0.8524	0.5509	9.4582
0.7824	0.4128	9.4731
0.8249	0.6305	9.4169
0.8363	0.5713	9.4283
0.7992	0.6030	9.3816
0.8100	0.5994	9.5665
0.7824	0.6102	9.4241
0.8841	0.4732	9.5946
0.7998	0.4361	9.4797
0.7484	0.7202	9.4253
0.9176	0.5324	9.2542
0.8997	0.5779	9.4372
0.8877	0.6604	9.4624
0.9170	0.7729	9.4528
0.9458	0.5013	9.5048
0.9021	0.6634	9.5246
0.8554	0.7244	9.3242
0.9846	0.6084	9.4983
0.8979	0.5665	9.5467
0.9129	0.7238	9.3924
1.0702	0.7579	9.4779
0.9093	0.6682	9.5144
0.9039	0.5964	9.5748
0.9230	0.6825	9.4325
0.9290	0.6197	9.5336
0.9697	0.5970	9.4965
0.9368	0.7053	9.6257
0.9721	0.7107	9.3212
1.0205	0.7184	9.5342
0.9458	0.6694	9.4618
0.9410	0.6556	9.5342
0.9960	0.7436	9.3846
0.9828	0.7489	9.4486
0.9781	0.6622	9.5515
0.9458	0.6269	9.6113
0.9834	0.7089	9.4929
0.9284	0.8022	9.5054
0.9799	0.6772	9.4366
0.9793	0.7657	9.5449
0.9757	0.7753	9.5288
0.8764	0.6784	9.5126
0.9446	0.7166	9.5611
0.9709	0.6048	9.5048
0.9410	0.6766	9.6143
0.9380	0.6616	9.5940
0.9822	0.6748	9.5736
0.9487	0.4929	9.5641
0.9081	0.5527	9.5425
0.9817	0.6365	9.5407
0.9051	0.6538	9.5001
0.8979	0.6718	9.5210
0.8770	0.6694	9.6125
0.9200	0.6132	9.6221
0.7956	0.5838	9.5808
0.8441	0.6389	9.5605
0.8638	0.6592	9.5282
0.8333	0.6479	9.5718
0.9063	0.5420	9.6562
0.8823	0.6999	9.5790
0.9105	0.7011	9.4420
0.8823	0.6395	9.5306
1.0080	0.6060	9.5880
1.0205	0.6831	9.6203
0.9428	0.7836	9.5641
0.8889	0.7125	9.5030
0.9643	0.6359	9.6233
1.0128	0.6221	9.6269
0.9529	0.6006	9.6586
0.9840	0.6556	9.5772
1.0295	0.7412	9.5473
0.9571	0.6981	9.5294
0.9517	0.6221	9.6239
0.9535	0.7005	9.5820
0.9398	0.7681	9.4899
0.9206	0.6502	9.5784
1.0576	0.6341	9.6305
0.9547	0.7585	9.5760
0.8668	0.7448	9.4576
0.9505	0.6855	9.5868
0.9757	0.5384	9.5952
0.9224	0.6550	9.6017
0.8112	0.6921	9.5036
0.9308	0.6766	9.5599
0.9655	0.5420	9.5706
0.9493	0.6329	9.6281
0.8381	0.6455	9.5389
0.8596	0.6736	9.5425
0.8626	0.5749	9.5431
0.8423	0.5994	9.5611
0.9117	0.6150	9.5934
0.8985	0.6185	9.5862
0.8680	0.5731	9.6281
0.8752	0.6808	9.5557
0.8710	0.5599	9.5844
0.8853	0.6197	9.6119
0.8758	0.6269	9.5647
0.8512	0.6179	9.5706
0.8662	0.5964	9.5336
0.8752	0.5593	9.5766
0.8829	0.5719	9.5862
0.8626	0.6467	9.5706
0.8177	0.6126	9.5210
0.8112	0.6078	9.5706
0.8321	0.5803	9.5898
0.8865	0.5635	9.5976
0.8566	0.6820	9.6424
0.8423	0.6425	9.5665
0.9069	0.6263	9.5617
0.9601	0.6873	9.6083
0.9966	0.7346	9.5425
1.0816	0.8112	9.5306
1.0612	0.8279	9.5270
1.1228	0.7711	9.5198
1.1300	0.7908	9.5718
1.1348	0.8183	9.5527
1.1330	0.8171	9.5228
1.0905	0.7711	9.5312
1.0827	0.7681	9.5647
1.0475	0.7639	9.5599
1.0181	0.7256	9.5934
1.0289	0.7866	9.5515
1.0193	0.7202	9.5479
1.0074	0.7412	9.5844
1.0116	0.8082	9.5820
1.0116	0.7519	9.5808
1.0002	0.7537	9.5557
0.9996	0.7113	9.5724
0.9541	0.6646	9.5425
0.9529	0.7071	9.5533
0.9440	0.6473	9.5964
0.9362	0.6724	9.5617
0.9332	0.6598	9.5539
0.9511	0.6215	9.5736
0.9362	0.6927	9.5742
0.9523	0.7089	9.5760
0.9727	0.6969	9.6125
0.9757	0.7250	9.5659
0.9769	0.7059	9.5724
0.9960	0.7160	9.5629
0.9745	0.7561	9.5389
0.9900	0.7178	9.5790
1.0253	0.7489	9.5880
1.0451	0.7418	9.5437
1.0606	0.7190	9.5521
1.0038	0.7238	9.5838
0.9523	0.7023	9.5509
0.9685	0.6784	9.5850
0.9649	0.6748	9.5994
0.9775	0.6580	9.5665
0.9655	0.6395	9.5599
0.9374	0.6556	9.5832
0.9152	0.6873	9.5784
0.9272	0.7047	9.5647
0.9565	0.6981	9.5796
0.9852	0.7029	9.5682
1.0122	0.7065	9.5581
1.0098	0.7047	9.5527
0.9864	0.7322	9.5760
0.9398	0.7226	9.5617
0.9679	0.7107	9.5724
0.9864	0.6855	9.5724
1.0032	0.6718	9.5682
0.9894	0.6760	9.5461
0.9793	0.6754	9.5784
0.9691	0.6772	9.5886
0.9458	0.6885	9.5784
0.9757	0.6867	9.5880
0.9565	0.6837	9.5605
0.9900	0.6760	9.5599
0.9745	0.7035	9.5796
0.9685	0.6885	9.5802
0.9757	0.7107	9.5916
0.9721	0.7035	9.5587
0.9840	0.7089	9.5718
0.9799	0.7053	9.5742
0.9667	0.7035	9.5742
0.9822	0.6814	9.5527
0.9805	0.6778	9.5599
0.9787	0.6676	9.5802
0.9667	0.6855	9.5682
0.9649	0.6778	9.5545
0.9661	0.7047	9.5772
0.9822	0.6915	9.5796
1.0104	0.7256	9.5802
0.9936	0.6993	9.5784
0.9703	0.6951	9.5838
0.9356	0.6939	9.5862
0.9200	0.6748	9.5832
0.9236	0.6873	9.5677
0.9631	0.6903	9.5760
1.0044	0.7089	9.5706
1.0181	0.7250	9.5838
1.0187	0.7340	9.5838
0.9811	0.7196	9.5862
0.9482	0.6927	9.5904
0.9440	0.6700	9.5760
0.9374	0.6496	9.5706
0.9553	0.6658	9.5724
0.9733	0.6903	9.5587
0.9918	0.7178	9.5772
0.9942	0.7310	9.5958
0.9727	0.7107	9.5958
0.9386	0.7089	9.5976
0.9374	0.6808	9.5940
0.9326	0.6915	9.5766
0.9565	0.6730	9.5712
0.9864	0.6766	9.5886
0.9769	0.7095	9.5778
0.9894	0.6987	9.5778
0.9900	0.7077	9.5826
0.9727	0.6921	9.5772
0.9775	0.6820	9.5832
0.9565	0.6837	9.5844
0.9583	0.6604	9.5635
0.9607	0.6772	9.5653
0.9523	0.6754	9.5772
0.9691	0.6736	9.5928
0.9601	0.7143	9.5982
0.9655	0.6969	9.5952
0.9793	0.6903	9.5760
0.9763	0.7155	9.5862
0.9918	0.6909	9.5850
0.9727	0.7119	9.5772
0.9595	0.6897	9.5635
0.9464	0.6724	9.5641
0.9697	0.6909	9.5790
0.9775	0.6831	9.5880
0.9799	0.6843	9.5976
0.9679	0.6939	9.5778
0.9763	0.6712	9.5641
0.9673	0.7011	9.5742
0.9793	0.7041	9.5730
0.9900	0.7083	9.5886
0.9607	0.7047	9.5826
0.9511	0.7029	9.5712
0.9493	0.6808	9.5712
0.9571	0.6837	9.5790
0.9739	0.6814	9.5754
0.9787	0.6867	9.5820
0.9781	0.6933	9.5724
0.9775	0.6981	9.5647
0.9846	0.7035	9.5688
0.9924	0.7137	9.5748
0.9984	0.7137	9.5724
0.9840	0.7035	9.5850
0.9601	0.6993	9.5724
0.9470	0.6658	9.5712
0.9547	0.6682	9.5838
0.9458	0.6760	9.5748
0.9589	0.6766	9.5772
0.9559	0.6975	9.5766
0.9625	0.7011	9.5778
0.9613	0.7196	9.5832
0.9775	0.7107	9.5778
0.9817	0.7059	9.5730
0.9805	0.7143	9.5641
0.9840	0.6879	9.5677
0.9715	0.6808	9.5778
0.9470	0.6802	9.5623
0.9565	0.6634	9.5653
0.9559	0.6670	9.5832
0.9625	0.6825	9.5730
0.9739	0.6915	9.5706
0.9745	0.6993	9.5844
0.9703	0.7131	9.5754
0.9715	0.7155	9.5575
0.9727	0.7047	9.5820
0.9625	0.7077	9.5964
0.9691	0.7077	9.5682
0.9625	0.6814	9.5862
0.9619	0.6957	9.5970
0.9452	0.6724	9.5700
0.9631	0.6712	9.5808
0.9577	0.6742	9.5904
0.9625	0.6939	9.5694
0.9787	0.6981	9.5748
0.9918	0.6957	9.5946
0.9888	0.7172	9.5946
0.9727	0.7071	9.5844
0.9763	0.6993	9.5808
0.9601	0.7041	9.5868
0.9631	0.6814	9.5742
0.9661	0.6993	9.5760
0.9757	0.6921	9.5820
0.9583	0.6867	9.5862
0.9505	0.6802	9.5820
0.9464	0.6837	9.5784
0.9499	0.6814	9.5832
0.9547	0.6778	9.5677
0.9769	0.6766	9.5736
0.9834	0.7011	9.5682
0.9751	0.6951	9.5694
0.9673	0.6933	9.5694
0.9643	0.7065	9.5856
0.9679	0.7029	9.5790
0.9775	0.7011	9.5742
0.9775	0.6969	9.5838
0.9697	0.6903	9.5796
0.9631	0.6867	9.5862
0.9452	0.6861	9.5886
0.9541	0.6688	9.5898
0.9511	0.6754	9.5862
0.9643	0.6778	9.5766
0.9655	0.6885	9.5796
0.9769	0.6981	9.5844
0.9733	0.7041	9.5820
0.9799	0.7035	9.5766
0.9817	0.7101	9.5838
0.9727	0.7053	9.5682
0.9697	0.6969	9.5766
0.9673	0.6861	9.5790
0.9649	0.6897	9.5748
0.9637	0.6808	9.5760
0.9643	0.6736	9.5754
0.9470	0.6825	9.5784
0.9631	0.6778	9.5790
0.9547	0.6784	9.5838
0.9505	0.6957	9.5712
0.9697	0.6975	9.5736
0.9840	0.7041	9.5820
0.9727	0.7172	9.5796
0.9799	0.7077	9.5808
0.9787	0.7041	9.5784
0.9643	0.6987	9.5736
0.9607	0.6951	9.5700
0.9769	0.6855	9.5754
0.9637	0.6849	9.5677
0.9715	0.6951	9.5659
0.9649	0.6855	9.5898
0.9679	0.6754	9.5760
0.9607	0.6909	9.5862
0.9637	0.6849	9.5862
0.9482	0.6873	9.5778
0.9631	0.6927	9.5796
0.9727	0.6927	9.5760
0.9655	0.7029	9.5712
0.9727	0.6999	9.5712
0.9715	0.6981	9.5796
0.9637	0.6867	9.5671
0.9733	0.6993	9.5772
0.9805	0.6951	9.5694
0.9787	0.6915	9.5682
0.9822	0.6843	9.5730
0.9781	0.6867	9.5766
0.9601	0.6837	9.5844
0.9583	0.6855	9.5766
0.9661	0.6861	9.5802
0.9643	0.6945	9.5790
0.9709	0.7023	9.5754
0.9667	0.7011	9.5760
0.9631	0.6975	9.5712
0.9691	0.7089	9.5808
0.9643	0.7011	9.5778
0.9733	0.6975	9.5796
0.9793	0.6909	9.5730
0.9757	0.6855	9.5694
0.9709	0.6939	9.5838
0.9655	0.6837	9.5742
0.9799	0.6748	9.5766
0.9607	0.6921	9.5778
0.9709	0.6837	9.5647
0.9565	0.7017	9.5808
0.9637	0.6951	9.5724
0.9637	0.7011	9.5688
0.9691	0.6999	9.5748
0.9607	0.7041	9.5766
0.9661	0.6891	9.5706
0.9709	0.6987	9.5802
0.9661	0.6772	9.5694
0.9697	0.6903	9.5718
0.9811	0.6843	9.5700
0.9739	0.6879	9.5820
0.9781	0.6867	9.5778
0.9727	0.6867	9.5706
0.9655	0.6921	9.5766
0.9601	0.6975	9.5796
0.9667	0.6837	9.5694
0.9505	0.7041	9.5826
0.9613	0.6885	9.5862
0.9565	0.7047	9.5718
0.9643	0.6802	9.5922
0.9625	0.7119	9.5826
0.9691	0.6825	9.5641
0.9715	0.7053	9.5868
0.9787	0.6837	9.5826
0.9811	0.6879	9.5653
0.9739	0.6939	9.5850
0.9799	0.6790	9.5712
0.9679	0.6927	9.5694
0.9697	0.6861	9.5802
0.9619	0.6885	9.5736
0.9619	0.6981	9.5700
0.9583	0.6927	9.5904
0.9637	0.6909	9.5766
0.9613	0.6951	9.5790
0.9589	0.6951	9.5814
0.9583	0.6975	9.5772
0.9673	0.6915	9.5754
0.9673	0.7029	9.5712
0.9733	0.6831	9.5808
0.9733	0.6993	9.5694
0.9757	0.6772	9.5844
0.9655	0.6981	9.5742
0.9715	0.6933	9.5694
0.9673	0.6921	9.5880
0.9709	0.7017	9.5694
0.9655	0.6796	9.5832
0.9607	0.7059	9.5736
0.9691	0.6909	9.5814
0.9709	0.6903	9.5808
0.9649	0.6909	9.5796
0.9769	0.6790	9.5766
0.9727	0.7035	9.5724
0.9745	0.6825	9.5808
0.9745	0.6951	9.5778
0.9703	0.6993	9.5802
0.9691	0.6885	9.5820
0.9649	0.6903	9.5790
0.9655	0.6802	9.5742
0.9541	0.6987	9.5844
0.9541	0.6891	9.5784
0.9571	0.6796	9.5886
0.9589	0.6945	9.5856
0.9553	0.6927	9.5754
0.9649	0.6837	9.5862
0.9637	0.6963	9.5712
0.9703	0.6855	9.5730
0.9721	0.6993	9.5832
0.9775	0.6951	9.5730
0.9787	0.6861	9.5838
0.9733	0.6969	9.5778
0.9709	0.6903	9.5724
0.9751	0.6903	9.5850
0.9739	0.6820	9.5796
0.9787	0.6915	9.5700
0.9649	0.6873	9.5886
0.9631	0.6885	9.5814
0.9637	0.6909	9.5665
0.9685	0.6855	9.5916
0.9577	0.6957	9.5826
0.9703	0.6921	9.5605
0.9673	0.6849	9.5904
0.9559	0.6927	9.5766
0.9655	0.6981	9.5647
0.9637	0.6843	9.5898
0.9589	0.7005	9.5802
0.9673	0.6903	9.5700
0.9583	0.6963	9.5862
0.9565	0.6897	9.5754
0.9667	0.6867	9.5742
0.9715	0.6849	9.5856
0.9667	0.6963	9.5754
0.9685	0.6951	9.5653
0.9781	0.6784	9.5808
0.9697	0.6849	9.5784
0.9703	0.6957	9.5653
0.9787	0.6879	9.5718
0.9727	0.6945	9.5814
0.9703	0.6933	9.5706
0.9739	0.6921	9.5778
0.9667	0.6969	9.5730
0.9577	0.6969	9.5748
0.9679	0.6885	9.5838
0.9667	0.6909	9.5742
0.9601	0.6915	9.5772
0.9643	0.6909	9.5820
0.9661	0.6814	9.5790
0.9655	0.6873	9.5790
0.9637	0.6879	9.5802
0.9625	0.6921	9.5730
0.9607	0.6873	9.5730
0.9697	0.6921	9.5754
0.9655	0.6969	9.5748
0.9655	0.7017	9.5748
0.9685	0.6915	9.5808
0.9709	0.6909	9.5820
0.9631	0.6963	9.5790
0.9721	0.6933	9.5790
0.9715	0.6897	9.5790
0.9757	0.6879	9.5802
0.9751	0.6879	9.5772
0.9715	0.6837	9.5838
0.9655	0.6933	9.5724
0.9679	0.6855	9.5754
0.9733	0.6909	9.5826
0.9703	0.6963	9.5790
0.9649	0.6945	9.5790
0.9655	0.6987	9.5820
0.9583	0.6915	9.5838
0.9553	0.7023	9.5760
0.9619	0.6885	9.5808
0.9631	0.7035	9.5814
0.9613	0.6837	9.5796
0.9667	0.6939	9.5760
0.9649	0.6879	9.5784
0.9697	0.6873	9.5790
0.9715	0.6855	9.5778
0.9727	0.6843	9.5784
0.9715	0.6843	9.5796
0.9733	0.6951	9.5760
0.9703	0.6903	9.5784
0.9769	0.6891	9.5862
0.9667	0.6951	9.5778
0.9679	0.6933	9.5868
0.9649	0.6975	9.5766
0.9685	0.6885	9.5766
0.9715	0.6957	9.5832
0.9697	0.6933	9.5784
0.9721	0.6909	9.5790
0.9679	0.6873	9.5838
0.9655	0.6831	9.5808
0.9679	0.6897	9.5784
0.9709	0.6903	9.5772
0.9715	0.6897	9.5844
0.9721	0.6873	9.5826
0.9697	0.6933	9.5820
0.9595	0.6927	9.5856
0.9643	0.7005	9.5742
0.9667	0.6891	9.5826
0.9727	0.6969	9.5838
0.9679	0.6957	9.5760
0.9727	0.6873	9.5760
0.9655	0.6867	9.5820
0.9649	0.6843	9.5808
0.9697	0.6879	9.5736
0.9769	0.6855	9.5754
0.9739	0.6909	9.5814
0.9745	0.6909	9.5748
0.9739	0.6820	9.5844
0.9649	0.6933	9.5832
0.9619	0.6909	9.5766
0.9649	0.6885	9.5844
0.9697	0.6921	9.5844
0.9691	0.6981	9.5700
0.9703	0.6945	9.5832
0.9667	0.6945	9.5898
0.9631	0.6861	9.5730
0.9661	0.6831	9.5808
0.9637	0.6885	9.5862
0.9667	0.6849	9.5694
0.9751	0.6873	9.5754
0.9769	0.6873	9.5862
0.9739	0.6969	9.5790
0.9691	0.6909	9.5808
0.9643	0.6915	9.5892
0.9619	0.6969	9.5784
0.9661	0.6873	9.5754
0.9721	0.6885	9.5862
0.9697	0.6993	9.5772
0.9703	0.6873	9.5754
0.9667	0.6891	9.5880
0.9673	0.6915	9.5838
0.9649	0.6975	9.5748
0.9739	0.6927	9.5802
0.9793	0.6879	9.5850
0.9733	0.6927	9.5718
0.9709	0.6909	9.5784
0.9643	0.6909	9.5886
0.9607	0.6969	9.5724
0.9655	0.6885	9.5778
0.9691	0.6951	9.5892
0.9703	0.6969	9.5712
0.9685	0.6933	9.5706
0.9697	0.6837	9.5868
0.9649	0.6909	9.5754
0.9649	0.6945	9.5730
0.9679	0.6915	9.5874
0.9685	0.6915	9.5802
0.9709	0.6891	9.5688
0.9709	0.6873	9.5832
0.9703	0.6909	9.5772
0.9715	0.6921	9.5700
0.9697	0.6837	9.5862
0.9703	0.6927	9.5772
0.9727	0.6981	9.5682
0.9739	0.6897	9.5844
0.9745	0.6879	9.5808
0.9751	0.6915	9.5712
0.9655	0.6879	9.5832
0.9631	0.6915	9.5796
0.9673	0.6915	9.5712
0.9691	0.6861	9.5862
0.9667	0.6939	9.5802
0.9685	0.6969	9.5730
0.9655	0.6903	9.5862
0.9643	0.6921	9.5838
0.9649	0.6963	9.5718
0.9673	0.6927	9.5820
0.9703	0.6921	9.5814
0.9703	0.6939	9.5742
0.9691	0.6885	9.5820
0.9679	0.6897	9.5808
0.9691	0.6915	9.5760
0.9709	0.6891	9.5814
0.9733	0.6891	9.5802
0.9745	0.6903	9.5760
0.9709	0.6891	9.5796
0.9703	0.6909	9.5796
0.9697	0.6909	9.5796
0.9691	0.6909	9.5826
0.9709	0.6927	9.5784
0.9715	0.6927	9.5772
0.9709	0.6897	9.5808
0.9685	0.6897	9.5784
0.9673	0.6909	9.5772
0.9655	0.6897	9.5814
0.9631	0.6915	9.5802
0.9637	0.6915	9.5784
0.9643	0.6903	9.5814
0.9637	0.6909	9.5802
0.9631	0.6915	9.5796
0.9637	0.6903	9.5826
0.9625	0.6903	9.5826
0.9637	0.6903	9.5796
0.9679	0.6903	9.5832
0.9697	0.6915	9.5820
0.9703	0.6921	9.5778
0.9727	0.6891	9.5820
0.9727	0.6897	9.5820
0.9721	0.6921	9.5778
0.9745	0.6885	9.5814
0.9733	0.6873	9.5832
0.9709	0.6903	9.5784
0.9691	0.6897	9.5820
0.9661	0.6891	9.5844
0.9655	0.6909	9.5790
0.9655	0.6897	9.5826
0.9643	0.6897	9.5862
0.9643	0.6921	9.5808
0.9649	0.6897	9.5838
0.9643	0.6885	9.5862
0.9649	0.6909	9.5790
0.9673	0.6897	9.5820
0.9673	0.6879	9.5844
0.9685	0.6903	9.5778
0.9703	0.6891	9.5796
0.9703	0.6879	9.5826
0.9703	0.6909	9.5754
0.9709	0.6903	9.5778
0.9715	0.6897	9.5826
0.9721	0.6933	9.5766
0.9721	0.6933	9.5784
0.9727	0.6897	9.5826
0.9715	0.6921	9.5760
0.9709	0.6921	9.5760
0.9715	0.6897	9.5808
0.9709	0.6909	9.5772
0.9709	0.6909	9.5772
0.9703	0.6891	9.5808
0.9697	0.6903	9.5778
0.9679	0.6921	9.5772
0.9673	0.6897	9.5814
0.9667	0.6909	9.5802
0.9655	0.6921	9.5784
0.9649	0.6909	9.5820
0.9661	0.6915	9.5820
0.9655	0.6921	9.5802
0.9661	0.6903	9.5814
0.9673	0.6903	9.5808
0.9685	0.6915	9.5790
0.9697	0.6897	9.5802
0.9715	0.6897	9.5808
0.9721	0.6903	9.5790
0.9715	0.6897	9.5808
0.9715	0.6897	9.5826
0.9715	0.6915	9.5802
0.9703	0.6903	9.5814
0.9703	0.6897	9.5814
0.9703	0.6909	9.5790
0.9691	0.6903	9.5808
0.9691	0.6891	9.5826
0.9685	0.6903	9.5814
0.9673	0.6909	9.5814
0.9673	0.6903	9.5814
0.9667	0.6909	9.5808
0.9667	0.6909	9.5808
0.9667	0.6903	9.5814
0.9661	0.6915	9.5802
0.9661	0.6921	9.5802
0.9673	0.6909	9.5814
0.9679	0.6915	9.5808
0.9691	0.6927	9.5808
0.9691	0.6927	9.5820
0.9697	0.6915	9.5820
0.9697	0.6921	9.5820
0.9703	0.6915	9.5808
0.9715	0.6915	9.5808
0.9715	0.6915	9.5802
0.9709	0.6915	9.5790
0.9709	0.6921	9.5796
0.9703	0.6927	9.5808
0.9691	0.6927	9.5802
0.9685	0.6921	9.5808
0.9679	0.6927	9.5820
0.9655	0.6933	9.5790
0.9661	0.6921	9.5790
0.9655	0.6915	9.5802
0.9643	0.6915	9.5778
0.9643	0.6903	9.5778
0.9637	0.6903	9.5796
0.9643	0.6903	9.5778
0.9649	0.6903	9.5790
0.9649	0.6909	9.5802
0.9649	0.6921	9.5784
0.9649	0.6915	9.5784
0.9655	0.6909	9.5796
0.9661	0.6921	9.5784
0.9679	0.6915	9.5784
0.9679	0.6921	9.5796
0.9685	0.6921	9.5784
0.9691	0.6909	9.5796
0.9679	0.6909	9.5808
0.9685	0.6909	9.5790
0.9685	0.6903	9.5790
0.9679	0.6891	9.5802
0.9673	0.6903	9.5802
0.9667	0.6909	9.5796
0.9661	0.6897	9.5808
0.9655	0.6909	9.5808
0.9649	0.6921	9.5802
0.9661	0.6921	9.5814
0.9649	0.6927	9.5814
0.9655	0.6933	9.5802
0.9661	0.6927	9.5814
0.9655	0.6921	9.5814
0.9667	0.6927	9.5784
0.9673	0.6915	9.5790
0.9679	0.6915	9.5808
0.9691	0.6915	9.5784
0.9703	0.6909	9.5796
0.9721	0.6915	9.5808
0.9715	0.6921	9.5796
0.9715	0.6927	9.5796
0.9715	0.6915	9.5796
0.9709	0.6921	9.5784
0.9709	0.6927	9.5802
0.9709	0.6921	9.5796
0.9697	0.6933	9.5790
0.9697	0.6933	9.5802
0.9685	0.6933	9.5796
0.9685	0.6939	9.5784
0.9679	0.6933	9.5796
0.9679	0.6933	9.5796
0.9673	0.6933	9.5790
0.9667	0.6933	9.5790
0.9667	0.6927	9.5796
0.9673	0.6927	9.5790
0.9673	0.6933	9.5796
0.9661	0.6933	9.5796
0.9673	0.6927	9.5796
0.9685	0.6927	9.5796
0.9685	0.6921	9.5796
0.9691	0.6921	9.5796
0.9691	0.6921	9.5784
0.9697	0.6915	9.5796
0.9703	0.6915	9.5796
0.9697	0.6921	9.5790
0.9703	0.6921	9.5790
0.9691	0.6921	9.5784
0.9691	0.6927	9.5772
0.9679	0.6933	9.5772
0.9685	0.6933	9.5796
0.9679	0.6933	9.5796
0.9685	0.6939	9.5802
0.9679	0.6945	9.5796
0.9673	0.6939	9.5808
0.9667	0.6939	9.5802
0.9673	0.6933	9.5808
0.9673	0.6927	9.5808
0.9673	0.6927	9.5796
0.9679	0.6927	9.5796
0.9679	0.6933	9.5796
0.9679	0.6933	9.5796
0.9679	0.6933	9.5796
0.9685	0.6933	9.5802
0.9691	0.6933	9.5808
0.9703	0.6933	9.5808
0.9703	0.6933	9.5820
0.9703	0.6927	9.5814
0.9703	0.6921	9.5808
0.9703	0.6921	9.5802
0.9709	0.6921	9.5802
0.9703	0.6915	9.5802
0.9691	0.6897	9.5808
0.9679	0.6897	9.5814
0.9679	0.6897	9.5814
0.9667	0.6897	9.5814
0.9667	0.6909	9.5814
0.9661	0.6915	9.5814
0.9655	0.6921	9.5820
0.9655	0.6921	9.5808
0.9655	0.6927	9.5802
0.9661	0.6921	9.5796
0.9661	0.6921	9.5790
0.9661	0.6921	9.5784
0.9679	0.6915	9.5784
0.9679	0.6915	9.5790
0.9679	0.6909	9.5790
0.9673	0.6915	9.5796
0.9673	0.6921	9.5796
0.9667	0.6921	9.5796
0.9673	0.6921	9.5796
0.9673	0.6921	9.5790
0.9673	0.6921	9.5784
0.9679	0.6915	9.5784
0.9685	0.6909	9.5790
0.9673	0.6903	9.5784
0.9667	0.6903	9.5784
0.9667	0.6909	9.5790
0.9667	0.6897	9.5784
0.9655	0.6903	9.5790
0.9649	0.6903	9.5790
0.9655	0.6903	9.5790
0.9649	0.6903	9.5784
0.9643	0.6903	9.5790
0.9637	0.6909	9.5784
0.9631	0.6915	9.5784
0.9643	0.6909	9.5784
0.9655	0.6909	9.5790
0.9667	0.6915	9.5796
0.9661	0.6915	9.5778
0.9661	0.6915	9.5772
0.9667	0.6921	9.5778
0.9667	0.6921	9.5778
0.9673	0.6915	9.5772
0.9661	0.6921	9.5778
0.9661	0.6921	9.5784
0.9661	0.6915	9.5790
0.9661	0.6927	9.5802
0.9667	0.6927	9.5796
0.9661	0.6921	9.5790
0.9655	0.6927	9.5796
0.9655	0.6921	9.5802
0.9661	0.6915	9.5796
0.9655	0.6921	9.5790
0.9649	0.6915	9.5790
0.9649	0.6915	9.5790
0.9649	0.6915	9.5790
0.9655	0.6915	9.5784
0.9661	0.6921	9.5784
0.9667	0.6921	9.5784
0.9667	0.6927	9.5784
0.9673	0.6921	9.5790
0.9691	0.6921	9.5790
0.9697	0.6921	9.5790
0.9691	0.6921	9.5790
0.9703	0.6921	9.5802
0.9697	0.6915	9.5802
0.9697	0.6915	9.5808
0.9703	0.6915	9.5814
0.9697	0.6915	9.5808
0.9691	0.6915	9.5808
0.9685	0.6921	9.5808
0.9673	0.6915	9.5802
0.9673	0.6921	9.5802
0.9667	0.6921	9.5808
0.9667	0.6921	9.5814
0.9667	0.6921	9.5808
0.9667	0.6915	9.5808
0.9661	0.6915	9.5796
0.9667	0.6921	9.5784
0.9667	0.6921	9.5784
0.9673	0.6921	9.5778
0.9685	0.6915	9.5778
0.9685	0.6915	9.5784
0.9685	0.6915	9.5784
0.9691	0.6921	9.5778
0.9697	0.6915	9.5784
0.9703	0.6921	9.5796
0.9709	0.6927	9.5790
0.9697	0.6927	9.5790
0.9679	0.6921	9.5790
0.9685	0.6915	9.5790
0.9679	0.6909	9.5796
0.9679	0.6909	9.5808
0.9673	0.6909	9.5808
0.9673	0.6909	9.5802
0.9673	0.6909	9.5802
0.9661	0.6909	9.5802
0.9661	0.6909	9.5796
0.9655	0.6909	9.5790
0.9655	0.6903	9.5802
0.9661	0.6903	9.5808
0.9661	0.6903	9.5808
0.9661	0.6897	9.5796
0.9667	0.6903	9.5802
0.9661	0.6909	9.5808
0.9661	0.6909	9.5802
0.9655	0.6909	9.5802
0.9667	0.6903	9.5796
0.9673	0.6903	9.5790
0.9673	0.6897	9.5784
0.9673	0.6903	9.5778
0.9679	0.6903	9.5778
0.9673	0.6903	9.5790
0.9673	0.6909	9.5784
0.9673	0.6903	9.5784
0.9661	0.6903	9.5778
0.9673	0.6903	9.5784
0.9673	0.6909	9.5772
0.9667	0.6915	9.5772
0.9661	0.6921	9.5772
0.9661	0.6921	9.5766
0.9661	0.6921	9.5766
0.9667	0.6915	9.5772
0.9661	0.6915	9.5784
0.9667	0.6921	9.5784
0.9673	0.6915	9.5790
0.9673	0.6915	9.5802
0.9679	0.6915	9.5802
0.9679	0.6909	9.5790
0.9679	0.6909	9.5796
0.9679	0.6909	9.5796
0.9679	0.6915	9.5808
0.9679	0.6909	9.5796
0.9685	0.6915	9.5796
0.9679	0.6915	9.5790
0.9685	0.6915	9.5796
0.9691	0.6915	9.5790
0.9697	0.6909	9.5784
0.9697	0.6909	9.5784
0.9697	0.6909	9.5790
0.9697	0.6903	9.5802
0.9697	0.6897	9.5802
0.9691	0.6903	9.5802
0.9685	0.6903	9.5802
0.9679	0.6909	9.5808
0.9673	0.6909	9.5808
0.9673	0.6903	9.5802
0.9667	0.6903	9.5802
0.9667	0.6903	9.5802
0.9667	0.6903	9.5796
0.9673	0.6903	9.5796
0.9673	0.6903	9.5802
0.9673	0.6897	9.5796
0.9667	0.6903	9.5790
0.9667	0.6909	9.5796
0.9673	0.6903	9.5790
0.9673	0.6903	9.5796
0.9685	0.6897	9.5808
0.9691	0.6903	9.5802
0.9685	0.6909	9.5802
0.9685	0.6909	9.5796
0.9673	0.6915	9.5796
0.9667	0.6915	9.5802
0.9673	0.6909	9.5814
0.9667	0.6903	9.5814
0.9673	0.6897	9.5814
0.9667	0.6903	9.5808
0.9667	0.6903	9.5814
0.9679	0.6897	9.5808
0.9667	0.6897	9.5802
0.9667	0.6903	9.5796
0.9673	0.6903	9.5784
0.9679	0.6909	9.5784
0.9685	0.6909	9.5784
0.9679	0.6897	9.5790
0.9685	0.6897	9.5790
0.9679	0.6891	9.5790
0.9679	0.6897	9.5790
0.9673	0.6897	9.5784
0.9685	0.6897	9.5784
0.9685	0.6891	9.5784
0.9685	0.6897	9.5778
0.9679	0.6897	9.5784
0.9679	0.6903	9.5778
0.9679	0.6897	9.5778
0.9673	0.6897	9.5778
0.9667	0.6897	9.5784
0.9667	0.6891	9.5784
0.9667	0.6897	9.5790
0.9673	0.6891	9.5796
0.9673	0.6891	9.5796
0.9673	0.6903	9.5796
0.9679	0.6897	9.5784
0.9679	0.6897	9.5790
0.9673	0.6897	9.5784
0.9679	0.6897	9.5790
0.9679	0.6897	9.5790
0.9673	0.6897	9.5790
0.9673	0.6903	9.5796
0.9679	0.6903	9.5790
0.9679	0.6903	9.5796
0.9685	0.6903	9.5796
0.9679	0.6909	9.5802
0.9679	0.6915	9.5802
0.9667	0.6915	9.5796
0.9661	0.6909	9.5796
0.9661	0.6909	9.5796
0.9667	0.6909	9.5790
0.9667	0.6915	9.5772
0.9667	0.6915	9.5772
0.9655	0.6915	9.5772
0.9649	0.6927	9.5766
0.9655	0.6927	9.5778
0.9655	0.6933	9.5772
0.9667	0.6927	9.5772
0.9661	0.6927	9.5760
0.9655	0.6933	9.5760
0.9661	0.6921	9.5760

