accelx	accely	accelz
0.8949	0.7974	9.6239
0.9344	0.7184	9.5359
0.8626	0.5103	9.6245
1.0050	0.8758	9.5371
0.8393	0.6371	9.3559
0.8542	0.6018	9.7363
1.0744	0.6969	9.4606
0.8417	0.6353	9.6526
1.0433	0.7813	9.5988
0.8961	0.6993	9.6017
0.9697	0.6861	9.6538
1.1958	0.7621	9.5880
0.7968	0.6951	9.6394
1.0241	0.6060	9.6047
0.9296	0.5306	9.5318
0.8812	0.5348	9.6580
0.9870	0.7980	9.5988
0.8459	0.6730	9.7310
1.0594	0.6078	9.6951
0.9003	0.7729	9.6029
1.0391	0.5611	9.5742
0.9643	0.7310	9.5898
0.9709	0.7166	9.5736
0.8674	0.5587	9.6699
0.9655	0.7238	9.5072
0.9057	0.5862	9.6508
0.9697	0.6628	9.6012
0.9727	0.7232	9.4211
0.9260	0.6550	9.6987
1.0163	0.7944	9.5539
0.9601	0.5486	9.5383
0.9900	0.6921	9.6167
0.9930	0.7131	9.4343
0.8829	0.5509	9.6687
1.0038	0.7178	9.4648
0.9254	0.7304	9.6035
0.8548	0.6873	9.6209
1.0486	0.6586	9.4265
0.8818	0.5815	9.7878
0.9852	0.6449	9.6466
0.9464	0.5749	9.5365
0.8776	0.6383	9.7274
1.0469	0.8423	9.4462
0.8608	0.5892	9.5946
0.8985	0.7693	9.5491
0.9805	0.7962	9.4731
0.8411	0.5767	9.8476
1.0564	0.6867	9.4983
0.8883	0.6185	9.4875
0.9111	0.8584	9.6059
0.8608	0.7968	9.5629
0.9254	0.4899	9.7932
1.0301	0.7466	9.6676
0.9123	0.6490	9.5389
0.8656	0.6245	9.6927
1.0744	0.6191	9.5497
0.8285	0.6461	9.5162
1.0289	0.8405	9.4486
0.7842	0.8752	9.5563
0.9643	0.5282	9.6741
0.9781	0.7346	9.5030
0.8477	0.6586	9.5575
1.0122	0.6395	9.5820
0.8321	0.7184	9.5365
0.9188	0.6132	9.5222
0.8333	0.7107	9.5515
0.8937	0.6814	9.5264
1.0134	0.6706	9.6179
0.9099	0.7119	9.5371
0.9906	0.6772	9.4289
0.9338	0.6556	9.6652
0.9254	0.6694	9.6592
0.9338	0.5785	9.6376
0.8608	0.6622	9.5988
1.0361	0.6054	9.4576
0.9057	0.6544	9.7340
0.9446	0.6867	9.5024
0.9511	0.6461	9.3852
0.9123	0.7089	9.7202
1.0068	0.6796	9.5144
0.9727	0.5707	9.8428
0.9631	0.6520	9.6155
0.9667	0.7226	9.5030
0.8488	0.6796	9.7405
1.0253	0.7950	9.4217
0.8812	0.5462	9.6436
0.9649	0.6748	9.5778
0.9637	0.6150	9.5174
0.9990	0.5420	9.7854
0.9613	0.7172	9.4438
0.9081	0.7454	9.5904
0.8447	0.7370	9.7387
1.0074	0.6203	9.4055
0.8985	0.6000	9.6173
1.0905	0.7202	9.4313
0.8698	0.5503	9.5772
0.9464	0.6329	9.6574
0.9577	0.6610	9.3260
0.8818	0.6957	9.6203
0.9242	0.7603	9.4827
0.9105	0.6455	9.4773
0.9152	0.7083	9.6676
1.0223	0.7962	9.4660
0.7896	0.5713	9.6538
1.0475	0.6066	9.3673
0.8435	0.7059	9.5048
1.0062	0.7286	9.6556
0.8979	0.7938	9.4959
0.9135	0.6317	9.6867
0.9147	0.6975	9.6251
0.8818	0.7286	9.5300
0.9224	0.5850	9.4965
0.9727	0.6233	9.5700
0.8351	0.6951	9.7663
0.7938	0.7388	9.7148
0.9093	0.8273	9.6065
0.9948	0.6311	9.6981
1.0355	0.6891	9.5282
0.9918	0.6156	9.6993
0.8925	0.7364	9.6047
0.9464	0.5940	9.4642
0.9595	0.5629	9.7040
0.8453	0.6467	9.5126
0.9511	0.6945	9.6676
0.8734	0.6700	9.5509
1.0666	0.6981	9.5569
0.8530	0.7172	9.7872
1.0397	0.6299	9.6041
0.9930	0.6024	9.5982
1.1228	0.6084	9.4624
0.8818	0.7232	9.4773
0.9278	0.5952	9.5712
0.8835	0.6550	9.4833
0.9499	0.6108	9.6317
0.8088	0.7137	9.3828
1.0845	0.6897	9.5174
0.9129	0.6939	9.6394
1.0337	0.7226	9.6041
0.9212	0.6299	9.5551
0.9033	0.7579	9.5515
0.8638	0.6969	9.5886
0.9601	0.6514	9.4540
0.9523	0.6120	9.4091
0.9440	0.7615	9.5551
0.7872	0.5803	9.7070
0.9906	0.6449	9.5928
0.9152	0.6066	9.5090
0.8997	0.8991	9.4977
0.9499	0.7819	9.5545
0.8614	0.6221	9.6472
0.9553	0.6712	9.5677
0.9093	0.6670	9.3816
1.0714	0.6389	9.5318
0.9332	0.6353	9.5168
0.8506	0.6520	9.7280
0.8315	0.6646	9.6526
0.9099	0.7944	9.6227
0.9176	0.5222	9.6975
1.0792	0.6102	9.5892
0.9051	0.6544	9.5916
0.9996	0.6861	9.6801
0.8339	0.5605	9.6311
0.9703	0.6431	9.5868
0.8967	0.6634	9.6358
0.9906	0.7460	9.6915
0.7160	0.6742	9.6508
1.0445	0.6359	9.5162
0.9278	0.6144	9.7369
1.1097	0.6586	9.6263
0.9422	0.5222	9.6472
0.8231	0.7848	9.6358
0.8506	0.7627	9.4737
0.9230	0.5527	9.7226
0.9697	0.7041	9.5162
0.9314	0.7807	9.5718
0.8500	0.7352	9.6077
1.0439	0.6837	9.4378
0.9655	0.5707	9.7728
1.0110	0.8243	9.5138
0.9990	0.7543	9.5090
0.8345	0.7549	9.7136
0.9212	0.6473	9.5748
0.8453	0.5809	9.6323
1.0869	0.7077	9.2889
0.9930	0.7041	9.5431
0.8596	0.6700	9.6927
0.9900	0.6508	9.5258
0.9541	0.5300	9.5778
0.8524	0.9027	9.5060
0.9769	0.6562	9.5916
0.7896	0.6646	9.6233
1.0983	0.6401	9.3164
0.9057	0.6610	9.6364
1.0038	0.6951	9.4552
0.9314	0.7190	9.6281
0.8883	0.5904	9.7250
0.9805	0.7926	9.6388
0.8638	0.6945	9.6538
1.0331	0.7346	9.6329
0.9176	0.6191	9.7675
0.9745	0.6658	9.6526
1.1061	0.6981	9.4295
0.8746	0.6921	9.6783
0.9864	0.6526	9.5593
0.7884	0.6849	9.8578
1.0116	0.6670	9.6257
0.9781	0.6760	9.6502
0.9182	0.6383	9.6293
0.9787	0.7406	9.5868
1.0570	0.5300	9.7052
0.9218	0.6568	9.5706
1.0666	0.7322	9.5527
0.7507	0.7418	9.7058
1.1480	0.6048	9.5371
0.8345	0.4630	9.6257
1.0295	0.7884	9.5150
0.8159	0.6814	9.7142
0.9697	0.6323	9.7082
1.0463	0.5312	9.5491
1.0080	0.8333	9.6012
0.8136	0.8913	9.4977
1.0008	0.6461	9.6837
0.8082	0.4738	9.6185
1.0475	0.7274	9.4594
0.8997	0.6843	9.5377
0.9882	0.7609	9.4019
0.8674	0.5904	9.5294
0.9434	0.5067	9.7657
0.8907	0.7238	9.5862
0.8919	0.7603	9.7184
0.9206	0.6191	9.6095
0.9003	0.6520	9.4546
0.9709	0.7531	9.5312
0.9817	0.7208	9.4959
0.8213	0.6329	9.4139
1.0259	0.6873	9.5790
0.8710	0.6550	9.6717
0.9739	0.6156	9.7292
0.8309	0.7364	9.5407
0.9093	0.6293	9.5814
0.9200	0.6736	9.6017
0.9828	0.6538	9.6137
0.9685	0.6903	9.5126
1.0044	0.7436	9.5479
0.8788	0.6903	9.4971
0.9499	0.5868	9.6221
0.8608	0.6598	9.6029
0.9458	0.5970	9.6987
0.9248	0.6287	9.5611
0.9033	0.7675	9.5641
0.9242	0.7149	9.6059
0.9870	0.7190	9.7483
0.9398	0.5683	9.5515
0.8441	0.6981	9.5814
1.0026	0.7005	9.4229
0.9655	0.6203	9.5467
0.9440	0.7250	9.6059
0.8949	0.6227	9.4851
0.8847	0.7286	9.5736
1.0738	0.6849	9.5174
0.8704	0.5731	9.7657
0.9158	0.6562	9.7244
0.9338	0.7214	9.4863
0.8584	0.7220	9.5419
0.9918	0.6173	9.5539
0.7771	0.5743	9.6729
0.9811	0.7448	9.4241
0.9517	0.6682	9.6921
0.8183	0.6251	9.6317
0.9571	0.6634	9.6227
0.7663	0.7322	9.5940
0.9912	0.5928	9.5623
0.8979	0.6963	9.5736
0.9948	0.7184	9.4989
1.0229	0.6909	9.5563
0.8620	0.5462	9.5760
1.0140	0.6185	9.5371
0.7687	0.6580	9.6197
1.0929	0.6377	9.4851
0.8100	0.7119	9.7489
1.0026	0.6114	9.4821
0.8955	0.6975	9.5671
0.9350	0.7412	9.4097
1.0732	0.6849	9.5922
0.9284	0.4965	9.6909
0.8524	0.6347	9.5383
0.8237	0.7412	9.5682
1.0002	0.7968	9.5623
1.0259	0.5342	9.7106
1.0092	0.4648	9.5437
0.8716	0.8237	9.3774
0.9631	0.8889	9.4660
0.8949	0.6891	9.6747
1.0516	0.5180	9.7328
0.8782	0.6287	9.4486
0.9805	0.9577	9.5258
0.7657	0.4714	9.4947
0.9703	0.5719	9.6430
0.9302	0.5300	9.4157
0.9547	0.8411	9.4133
0.8608	0.7513	9.4414
1.0307	0.5683	9.5593
0.9362	0.5192	9.6424
1.0217	0.7208	9.6454
0.7537	0.8865	9.5192
0.9637	0.7322	9.5324
0.9470	0.4822	9.5856
1.0319	0.7125	9.5958
0.9846	0.6700	9.5479
0.8219	0.7998	9.6173
1.0331	0.5198	9.7262
0.8590	0.5468	9.7561
0.8865	0.7579	9.6143
0.8656	0.8136	9.6185
1.0433	0.6945	9.6245
1.0002	0.5928	9.6915
0.9936	0.5270	9.6293
0.9218	0.7454	9.4169
0.9978	0.6837	9.6233
0.9152	0.5713	9.6472
0.9212	0.6191	9.6490
0.7693	0.7400	9.5742
0.9434	0.8183	9.3655
0.9583	0.6831	9.7106
1.0534	0.4965	9.5653
0.8620	0.6479	9.4941
0.9194	0.8076	9.4157
0.9063	0.8357	9.6861
0.9828	0.4307	9.8027
0.9039	0.5683	9.5760
0.9135	0.7681	9.3260
0.9212	0.9589	9.3481
0.8937	0.3697	9.6394
1.0068	0.4822	9.6173
0.9505	0.7125	9.4689
0.8447	0.8638	9.5078
0.9111	0.7160	9.7148
0.9601	0.4690	9.7286
0.9966	0.5862	9.4815
0.8572	0.7926	9.4133
0.9607	0.7723	9.4809
1.0175	0.5491	9.6556
0.9242	0.4624	9.6705
0.8136	0.7842	9.5605
0.9266	0.8722	9.5599
0.7777	0.6359	9.7489
1.0475	0.4522	9.5461
1.0469	0.7884	9.4582
1.0606	0.8919	9.4079
0.8375	0.6054	9.5455
1.0588	0.4187	9.6412
0.9541	0.6772	9.6753
0.9320	0.8835	9.6239
0.8118	0.8010	9.5461
1.0259	0.4899	9.6000
1.0128	0.5767	9.5180
0.9930	0.7711	9.5365
0.8381	0.7178	9.5090
0.9793	0.5402	9.7549
0.9649	0.6197	9.7328
0.8112	0.8572	9.6059
0.8524	0.8435	9.5288
1.0403	0.5300	9.5976
0.9476	0.4995	9.6341
1.0845	0.6634	9.5150
0.8351	0.7669	9.6634
0.9577	0.5791	9.5862
0.8273	0.6508	9.5569
0.8740	0.7155	9.4719
0.8124	0.9655	9.5234
1.0331	0.3882	9.5641
1.0833	0.4588	9.5587
1.0570	0.6580	9.4522
0.9003	0.7854	9.6017
0.9571	0.5641	9.5437
0.8333	0.6568	9.6329
0.9805	0.7418	9.5688
0.7902	0.9057	9.6658
0.9458	0.5773	9.5306
0.9248	0.5713	9.6801
1.1719	0.5414	9.3948
0.8309	0.9517	9.5443
0.8907	0.6843	9.5868
0.9147	0.6479	9.7465
0.9811	0.6873	9.6251
0.7813	0.7968	9.7070
1.0241	0.6987	9.6568
0.9559	0.5336	9.7585
1.2084	0.4684	9.4522
0.8716	0.8806	9.7142
0.8955	0.6694	9.5365
0.9613	0.6694	9.7489
0.9589	0.5671	9.5940
0.8255	0.8195	9.6430
0.9822	0.7609	9.3493
0.9021	0.5743	9.7531
1.1049	0.3296	9.4935
0.8686	0.8303	9.7417
0.9553	0.7489	9.6502
0.9972	0.6831	9.5641
0.9936	0.4774	9.4971
0.8937	0.8453	9.5018
0.9637	0.8632	9.4295
1.0068	0.4678	9.6658
1.0690	0.5300	9.5216
0.9129	0.7166	9.7633
0.7926	0.9236	9.4426
0.8740	0.6909	9.7351
0.8752	0.5563	9.5150
0.9386	0.6694	9.6239
0.9470	0.7406	9.4223
1.0642	0.6018	9.6598
0.9733	0.5791	9.5108
0.9398	0.7813	9.5886
0.8722	0.8453	9.5192
0.8566	0.6449	9.7214
0.9828	0.4624	9.5844
0.8441	0.6167	9.6837
1.0020	0.7292	9.5042
1.0331	0.6951	9.8147
1.0134	0.5462	9.4719
0.9188	0.7507	9.7064
0.8417	0.9350	9.6161
0.9691	0.5671	9.6257
0.8136	0.5252	9.5581
0.9069	0.5192	9.5677
0.8841	0.8764	9.3930
0.9906	0.6179	9.6412
0.9673	0.5294	9.4552
0.8584	0.7549	9.6490
0.8943	0.8303	9.5204
0.9260	0.6502	9.6861
0.9314	0.5450	9.4695
0.9152	0.5354	9.5994
0.9308	0.8955	9.4749
0.9434	0.7101	9.5072
0.9894	0.4881	9.5778
0.9236	0.6359	9.6508
0.8321	0.8925	9.5712
0.9781	0.6610	9.6341
0.8812	0.5521	9.6346
1.0014	0.6156	9.6586
0.9751	0.8381	9.5539
0.9685	0.6167	9.6987
0.8572	0.6831	9.5072
0.8961	0.5749	9.7334
0.8189	0.8333	9.5718
0.9822	0.7029	9.6275
0.8985	0.5785	9.5688
1.0433	0.5964	9.6915
0.9081	0.8309	9.6305
0.9099	0.6437	9.6711
0.7705	0.6036	9.5180
0.8764	0.6616	9.6502
0.8812	0.8207	9.5078
0.9936	0.6042	9.6047
0.9350	0.5898	9.5856
0.9727	0.6640	9.5928
0.8417	0.8423	9.5306
0.9272	0.6634	9.6424
0.7968	0.5013	9.6029
0.9356	0.6078	9.5527
0.9966	0.8333	9.4097
0.9948	0.6281	9.6077
1.0469	0.5623	9.5132
0.8303	0.7172	9.5252
0.6610	0.8841	9.4133
0.8058	0.5785	9.5204
0.7926	0.4929	9.3942
0.9482	0.7478	9.7734
0.9966	0.8040	9.4349
0.9793	0.6257	9.6275
1.0265	0.4481	9.4815
0.8315	0.6634	9.6664
0.8829	0.8022	9.5270
0.8668	0.6909	9.7399
0.9027	0.4845	9.4797
0.9499	0.8094	9.5365
0.9236	0.7501	9.4947
1.1079	0.4995	9.6580
0.9727	0.5557	9.5084
0.8895	0.7519	9.6454
0.8620	0.8297	9.4923
0.8279	0.6694	9.6053
0.9476	0.5282	9.4654
0.9350	0.9152	9.6245
0.9009	0.6502	9.5826
0.9870	0.5330	9.5994
0.9793	0.6012	9.4253
0.8082	0.9260	9.4965
0.7741	0.7872	9.5013
0.8680	0.5264	9.5742
0.9332	0.6736	9.4426
1.0564	0.8154	9.6095
0.9410	0.5886	9.5569
1.0307	0.5157	9.5988
1.0295	0.5043	9.5808
0.8937	0.9799	9.5036
0.7795	0.7256	9.7244
0.8883	0.5426	9.7262
0.8818	0.6185	9.5940
1.0965	0.8477	9.4827
0.8483	0.5785	9.6113
1.0869	0.5557	9.5347
0.8776	0.7244	9.5796
0.8776	0.9230	9.4995
0.7926	0.7017	9.8285
0.8441	0.6401	9.6652
0.9470	0.4498	9.7734
0.9900	0.8016	9.5694
0.8309	0.7107	9.7256
1.0792	0.4510	9.5880
0.9266	0.7472	9.7657
0.9123	0.8333	9.6167
0.8231	0.6933	9.7722
0.9918	0.4253	9.7184
1.0415	0.6592	9.6981
0.9619	0.7220	9.5198
0.9320	0.7011	9.6526
0.9362	0.4678	9.5066
0.9147	0.6634	9.5820
0.7693	0.8381	9.5024
0.8620	0.6634	9.6496
0.9541	0.4989	9.4839
1.0068	0.8177	9.6203
0.9164	0.8393	9.3870
0.9338	0.5545	9.7549
0.9416	0.4612	9.4360
0.9595	0.8016	9.5856
0.8189	0.6718	9.5276
0.9242	0.7155	9.7202
0.9655	0.5551	9.4235
1.0702	0.8859	9.5611
0.9200	0.6407	9.5706
1.0247	0.6437	9.8398
1.0128	0.5539	9.5437
0.9362	0.8447	9.6508
1.0433	0.6760	9.6933
0.8847	0.6209	9.7585
1.1180	0.5270	9.5671
0.9272	0.8638	9.5383
0.9236	0.6156	9.5174
0.8321	0.5677	9.5916
0.9601	0.6975	9.5611
0.7992	0.7238	9.6376
1.1270	0.6233	9.7046
0.8345	0.5593	9.7615
1.3699	0.6951	9.5078
0.8704	0.9362	9.5461
1.0002	0.5348	9.7848
0.7621	0.4660	9.5880
0.9380	0.6861	9.6227
0.8219	0.6897	9.4139
0.9511	0.6861	9.5808
0.9308	0.5264	9.4121
1.0504	0.6197	9.4648
0.8686	0.7705	9.4953
0.9918	0.6245	9.6035
0.7687	0.6736	9.6287
1.0911	0.6496	9.6837
1.0134	0.7902	9.6281
0.9864	0.5174	9.6999
1.0295	0.5803	9.5485
0.9978	0.8512	9.5539
0.8943	0.7310	9.6765
0.8130	0.5701	9.5868
0.8375	0.6108	9.6885
1.0415	0.7364	9.4444
0.8865	0.6287	9.6107
1.0331	0.4433	9.5928
0.9769	0.7747	9.5629
0.8279	0.8010	9.4265
0.9284	0.6808	9.5778
0.7507	0.6670	9.5820
0.9769	0.6778	9.6783
1.0762	0.6293	9.5234
0.9840	0.6526	9.5808
1.1432	0.5073	9.4612
0.9769	0.7621	9.6520
0.8895	0.6520	9.5192
0.7484	0.7280	9.6783
0.7478	0.6245	9.7369
0.8500	0.7220	9.5982
0.9242	0.6473	9.5533
1.1695	0.5390	9.5347
0.9541	0.7340	9.7172
0.8477	0.7424	9.5096
0.8345	0.6879	9.5856
0.8429	0.6311	9.4666
0.9577	0.6538	9.6646
0.9003	0.7848	9.4989
0.9093	0.4032	9.5994
1.0259	0.5462	9.3774
0.9392	0.7908	9.5862
1.0020	0.6634	9.4025
0.8130	0.6574	9.7752
1.0193	0.6610	9.5527
1.0313	0.8183	9.6801
0.8997	0.6688	9.5874
1.0516	0.5671	9.5563
0.8991	0.6455	9.6981
0.9111	0.7962	9.6125
0.8530	0.7795	9.7040
1.0217	0.4217	9.5946
0.8674	0.7489	9.5114
0.9254	0.8177	9.4019
1.0265	0.5593	9.6041
1.0235	0.5001	9.6143
0.9164	0.7926	9.6173
0.9063	0.8213	9.5479
0.8237	0.5815	9.6263
0.9123	0.5910	9.6412
1.0816	0.6772	9.4731
1.0457	0.7430	9.5587
0.9176	0.4618	9.6059
0.9458	0.6921	9.8159
0.7866	0.7717	9.5324
0.8536	0.8004	9.5222
0.9828	0.4588	9.4953
0.9099	0.7789	9.4654
1.1043	0.5719	9.4719
0.8171	0.7370	9.5988
0.9649	0.6263	9.6029
0.7980	0.8106	9.5353
0.8650	0.7639	9.5694
0.9493	0.6150	9.6556
0.9111	0.6658	9.6490
1.0439	0.6945	9.6335
1.0116	0.7436	9.5054
0.9637	0.5521	9.6562
0.9039	0.8171	9.5671
0.8291	0.7119	9.6442
0.9051	0.5336	9.6867
0.8812	0.6568	9.6107
1.0307	0.6903	9.4438
1.0762	0.6203	9.5084
0.8782	0.5545	9.6257
1.0821	0.7376	9.6155
0.7196	0.8028	9.7555
0.8363	0.6640	9.6305
0.9667	0.4762	9.5557
1.0475	0.8500	9.3858
1.0720	0.5450	9.5401
0.8698	0.4965	9.6065
1.1133	0.6802	9.4420
0.7693	0.9739	9.6293
0.7442	0.7621	9.5647
0.8088	0.5384	9.5790
1.0486	0.5013	9.7148
0.9625	0.8142	9.5491
0.8177	0.6742	9.7776
1.0630	0.4098	9.5491
0.9308	0.8919	9.7830
0.8644	0.6568	9.6012
0.8973	0.6706	9.6370
0.9828	0.5832	9.4420
1.0774	0.7513	9.6466
0.9362	0.7292	9.6580
0.9105	0.7292	9.5868
0.9464	0.7011	9.8895
0.6796	0.7196	9.6442
0.9577	0.5928	9.6071
0.9248	0.6156	9.2817
1.0869	0.7472	9.5180
0.9141	0.5803	9.3894
0.7741	0.6915	9.5431
0.9625	0.7980	9.6646
0.8829	0.7346	9.6981
0.8752	0.6132	9.7040
0.9739	0.4995	9.5174
1.0295	0.7663	9.5132
0.8812	0.7992	9.5964
0.9296	0.5282	9.6125
1.0080	0.8339	9.5108
1.0313	0.8524	9.5754
0.7166	0.8459	9.7076
0.9039	0.6084	9.3673
0.9828	0.5868	9.5312
0.9332	0.7280	9.3942
0.8189	0.7615	9.7070
0.9458	0.5342	9.4450
0.8500	0.8399	9.4893
1.0265	0.7089	9.5108
0.9081	0.6126	9.6293
1.0241	0.6473	9.6646
0.9200	0.6347	9.5078
0.9661	0.7274	9.6939
0.9535	0.5306	9.7393
0.6837	0.8506	9.6017
1.0451	0.5151	9.3894
1.0457	0.6179	9.6263
0.8764	0.8985	9.7322
0.9828	0.7053	9.4450
0.7950	0.8345	9.6472
0.9793	0.4995	9.5294
0.9374	0.7101	9.7453
0.8788	0.5868	9.4552
0.9182	0.6808	9.5132
0.9464	0.6239	9.4618
1.0379	0.8321	9.5635
0.8393	0.8106	9.7603
0.7908	0.3649	9.5718
0.8219	0.6144	9.5760
0.9990	0.6108	9.3930
0.8746	1.0092	9.5694
0.9170	0.5659	9.5342
1.0851	0.8177	9.6101
0.9015	0.5270	9.6006
1.0181	0.5569	9.5306
0.9565	0.7711	9.7178
0.9745	0.5450	9.4815
0.9787	0.7920	9.5868
0.8967	0.5946	9.6006
0.8596	0.8829	9.6263
0.9757	0.5180	9.5024
0.9954	0.5085	9.5264
1.0923	0.7035	9.6711
0.8058	0.5713	9.7788
0.9200	0.8357	9.4031
0.9571	0.4923	9.5694
0.8381	0.8375	9.5162
1.0349	0.5731	9.6017
0.7908	0.4720	9.5300
1.0774	0.6820	9.6801
0.8399	0.6790	9.7142
0.7950	0.9589	9.7363
0.9595	0.3912	9.4755
0.8375	0.8590	9.4953
1.1450	0.4702	9.4019
0.7980	0.7651	9.5210
1.0564	0.6526	9.5276
0.8967	0.7645	9.6927
0.7460	0.6748	9.6077
1.0038	0.4403	9.5353
0.9458	0.8512	9.6687
1.1916	0.4355	9.4103
0.9260	0.7155	9.5437
0.9404	0.6730	9.7124
0.8584	0.6664	9.7459
0.8201	0.7813	9.7806
1.0839	0.4534	9.3625
0.9039	0.8303	9.6604
0.8758	0.6126	9.4588
1.0140	0.7549	9.5013
0.9769	0.6766	9.8470
0.9158	0.6514	9.5976
0.8291	0.7902	9.6945
0.9673	0.5330	9.2165
1.0403	1.0289	9.6089
0.8997	0.4899	9.7974
0.8590	0.5743	9.3756
1.0080	0.6825	9.6185
0.7890	0.6520	9.4127
1.0181	0.6867	9.6376
0.9727	0.7292	9.3038
1.0283	0.6502	9.6670
0.9440	0.6108	9.8584
0.9254	0.6688	9.6059
1.0546	0.7304	9.8913
0.8919	0.5557	9.7160
0.9362	0.5067	9.6580
0.9751	0.8088	9.3990
0.9757	0.5306	9.4863
0.8237	0.7651	9.5820
1.0403	0.5689	9.4510
0.8991	0.8518	9.7232
0.9799	0.5551	9.5635
0.7424	0.7005	9.5677
1.1635	0.7507	9.4725
0.9051	0.8524	9.8081
0.8985	0.6748	9.5808
1.0379	0.5372	9.5198
0.9990	0.6933	9.5485
1.0098	0.5731	9.7866
0.8488	0.6814	9.4851
0.8740	0.7322	9.5659
0.9595	0.7166	9.6628
0.8818	0.5892	9.6717
1.1384	0.7238	9.2805
0.8889	0.9368	9.5371
0.8267	0.5605	9.4845
0.8423	0.8100	9.5754
0.9864	0.6490	9.7304
0.7968	0.7011	9.6723
0.9272	0.5755	9.5467
1.0235	0.5420	9.4725
1.0696	0.6245	9.5515
1.0636	0.6490	9.6496
0.6395	0.7166	9.4002
1.0516	0.7759	9.6323
0.8806	0.7352	9.7555
0.6664	0.2387	9.6089
1.0827	0.7561	9.5599
0.8596	0.5856	9.4797
1.0181	0.6185	9.4606
0.8979	0.8542	9.4456
0.9117	0.6556	9.6071
0.8692	0.6993	9.5677
0.9685	0.5402	9.4091
1.0307	0.5785	9.5964
1.0421	0.8423	9.7238
0.8040	0.6096	9.5551
1.0128	0.6532	9.5617
0.9571	0.5791	9.6059
0.8237	0.6329	9.7555
1.0528	0.4540	9.3505
0.8614	1.0205	9.5682
0.9781	0.5420	9.5593
0.6879	0.9164	9.6508
1.0804	0.5874	9.4061
0.9793	0.8483	9.5491
1.0833	0.3715	9.4695
0.8901	0.6263	9.4672
0.9679	0.8596	9.4648
0.7866	0.8877	9.6197
0.9751	0.6502	9.4247
0.8859	0.7041	9.7310
1.0301	0.4839	9.5964
0.8722	0.7406	9.6370
0.9828	0.7310	9.6000
0.9176	0.7645	9.7633
0.9906	0.7418	9.6867
0.9505	0.4899	9.5216
0.9840	0.8076	9.6370
0.9924	0.5480	9.6993
0.8883	0.6126	9.6352
0.9781	0.7627	9.6783
0.9793	0.6281	9.7770
0.7495	0.5838	9.5748
1.1270	0.7172	9.5090
0.8136	0.8644	9.6777
0.8016	0.5874	9.7292
0.7178	0.7047	9.3236
0.9344	0.8112	9.5599
1.1067	0.3559	9.5712
0.8387	0.5653	9.2530
1.0911	0.7005	9.2291
1.0163	0.9087	9.6017
0.7896	0.7454	9.6227
0.8034	0.8931	9.6388
0.9805	0.7083	9.6969
1.0516	0.4887	9.5994
0.9655	0.6233	9.3768
0.8560	0.7214	9.5425
0.9793	0.5007	9.7675
0.7980	0.7160	9.6574
1.1324	0.5713	9.5001
0.9027	0.8076	9.8201
1.0738	0.6114	9.4055
0.7489	0.6042	9.5132
0.9679	0.8291	9.6406
0.9069	0.6550	9.8225
0.8847	0.4313	9.5216
1.0923	0.6658	9.4953
1.0576	0.5168	9.5611
0.8405	0.6425	9.5030
0.9075	0.8237	9.3708
0.7549	0.7047	9.6837
1.1198	0.6203	9.5102
0.7836	0.6030	9.3421
1.0666	0.6586	9.4360
0.9709	0.7436	9.6544
0.7842	0.6568	9.3786
0.9852	0.6592	9.5497
1.0839	0.7364	9.9188
0.8261	0.5569	9.7040
1.0397	0.5318	9.6747
0.6873	0.8530	9.6693
0.9631	0.6150	9.5473
0.9236	0.6574	9.5084
0.9230	0.8261	9.7675
1.1031	0.4953	9.5084
1.0241	0.6532	9.3565
0.8213	0.6550	9.7824
0.8554	0.6837	9.8721
0.8004	0.6808	9.6221
0.8518	0.5677	9.5988
1.0606	0.6999	9.5192
0.9410	0.6311	9.5413
0.8189	0.4038	9.1292
0.8243	1.1360	9.4014
0.9099	0.5533	9.7477
0.6855	0.8710	9.5988
1.1988	0.5527	9.5790
0.8183	0.6598	9.6287
0.8189	0.4002	9.4737
0.7693	0.8028	9.4648
0.9529	0.6700	9.5814
0.9063	0.6999	9.7477
1.0516	0.6102	9.3774
0.7848	0.7495	9.5844
1.0869	0.7316	9.6454
0.6359	0.8483	9.4031
0.9428	0.6891	9.6418
1.0175	0.6084	9.4995
0.9769	0.5306	9.6071
1.0510	0.7382	9.4833
0.7274	0.7071	9.8243
0.7478	0.7286	9.7244
0.9721	0.5988	9.7896
0.9631	0.7358	9.5994
1.0732	0.5569	9.9003
1.0050	0.4714	9.1591
0.9948	0.8219	9.4851
0.9063	0.4893	10.0043
0.8447	0.8829	9.7914
1.0092	0.4181	9.4833
0.8889	0.9075	9.5682
1.2999	0.3326	9.8207
0.4792	0.8632	9.4851
1.0762	0.6724	9.3607
0.6987	0.7579	9.9690
1.0833	0.4080	9.2656
0.8584	0.8716	9.6819
1.1647	0.4570	9.7956
0.7023	0.7448	9.5001
0.8692	0.8070	9.5042
0.5886	0.7059	9.7280
0.9218	0.5892	9.3762
1.1474	0.6072	9.4725
0.7669	0.6843	9.6699
0.9559	0.6461	9.4803
0.7370	0.7346	9.5521
0.7968	0.7172	9.6275
0.8776	0.6359	9.8967
0.8883	0.4522	9.4725
0.8542	0.7980	9.2327
1.1450	0.6825	9.5856
0.7143	0.7478	9.4707
0.9386	0.7681	9.2237
1.0229	0.9888	9.6346
1.0887	0.3087	9.8967
0.9308	0.8997	9.6693
1.1940	0.6999	9.5222
0.4044	0.8471	9.5964
1.0666	0.4750	9.2189
0.7777	0.9649	9.5186
1.3107	0.4253	9.7040
0.8895	0.7860	9.6179
0.8560	1.0086	9.2991
0.5545	0.7681	9.6747
1.0140	0.6090	9.5563
1.0074	0.7268	9.5509
0.9936	0.6311	9.6239
1.1569	0.6526	9.5688
0.8788	0.8231	9.4121
0.7669	0.7513	9.4091
0.9392	0.6455	10.0929
0.8447	0.4690	9.3350
0.9966	0.8219	9.5677
1.2610	0.5013	9.6981
0.6574	0.7214	9.4923
0.9840	0.7525	9.1022
0.9230	0.9517	9.7417
1.0229	0.2752	9.7184
0.9852	0.9224	9.5629
1.0481	0.6221	9.6634
0.7609	0.7208	9.8787
0.8644	0.4630	9.5982
0.9344	0.8447	9.6335
1.0582	0.5121	9.9493
1.0606	0.5743	9.4259
0.9284	1.0510	9.4624
0.8524	0.5162	9.5126
0.9230	0.8327	9.4265
1.2060	0.7573	9.5389
1.0702	0.6891	9.8021
1.0995	0.6018	9.7154
0.8297	1.0080	9.3828
0.8387	0.5336	9.6514
0.8231	0.6610	9.9361
1.0283	0.5318	9.3768
0.9553	0.9284	9.6137
1.1109	0.6652	9.8249
0.7735	0.7549	9.2620
0.8471	0.8674	9.2315
0.8339	0.7579	9.6604
0.9440	0.5186	9.2757
1.0977	0.7884	9.4743
1.3376	0.6401	9.7818
0.8165	0.5803	9.4414
0.9218	0.8859	9.2518
0.8159	0.8698	9.6287
0.8632	0.4241	9.8285
1.1803	0.5444	9.4301
0.8560	0.7938	9.9702
0.9966	0.6084	9.5868
0.7382	0.8758	9.4037
1.0002	0.6873	9.5282
0.9057	0.6903	9.7328
1.1814	0.4887	9.3996
0.8560	1.1725	9.5180
0.7430	0.4193	9.8368
0.9344	0.7860	9.4773
1.0492	0.4995	9.2165
1.1976	0.4020	9.6789
1.2861	0.7454	9.8344
0.9523	1.0223	9.4181
0.7753	0.8375	9.5479
0.7986	0.6897	9.8201
0.8165	0.6933	9.5868
1.1952	0.5180	9.7543
1.0235	0.8530	10.0767
0.8734	0.5438	9.2506
0.5862	1.0163	9.3344
0.8530	0.5127	9.6717
1.0481	0.7101	9.1692
1.0881	0.8835	9.3015
1.0361	0.5545	9.6879
0.9224	0.9380	9.1992
0.8883	0.7543	9.1178
1.1635	0.6185	9.8267
0.8064	0.2010	9.5324
1.0648	0.9374	9.4205
0.9141	0.6048	9.7531
0.4510	0.5468	9.6508
0.9206	0.5832	9.1986
0.8560	0.8608	9.7238
1.1593	0.5390	9.8578
1.0869	0.7962	9.3493
1.1958	1.1115	9.2853
0.5934	0.7316	9.6035
0.9105	0.6867	9.3242
0.9942	0.8195	9.6586
0.9984	0.6395	9.7543
1.0211	0.3960	9.6149
0.5922	0.9978	9.2697
0.6395	0.3440	9.6604
0.4827	0.5581	9.6107
1.1306	0.5713	9.2422
0.7801	0.5826	9.8051
1.1103	0.6150	9.9655
0.9350	0.7819	9.6676
0.7878	0.6191	9.5694
0.8937	0.3302	9.9661
1.1581	0.7992	9.5826
0.8183	0.4875	9.6927
0.8590	0.4612	9.9840
0.9464	0.5575	9.2817
0.8082	0.6790	9.4360
0.9613	0.5103	10.1138
1.1820	0.4295	9.4151
1.0271	1.1204	9.6538
0.8477	0.5390	9.9397
1.0546	0.7256	9.4803
0.8554	0.5348	9.1579
1.0768	0.5815	9.7226
1.2126	0.4965	9.6789
1.0146	1.0475	9.5527
0.8177	0.5480	9.7974
0.9093	0.6431	9.7513
0.7992	0.5450	9.4953
0.7830	0.4977	9.5401
1.2658	0.5934	10.0444
1.0331	0.9284	9.4881
0.8973	0.6185	9.2793
0.9733	0.7878	9.8195
0.9787	0.6963	9.5832
0.9924	0.7908	9.5832
1.0654	0.8477	9.8991
0.8231	0.6144	9.3391
0.7202	0.8788	9.1328
0.8919	0.5868	9.7728
0.9434	0.4098	9.2967
0.8877	0.9284	9.3852
0.7669	0.7478	9.5671
0.6766	0.6939	9.3864
0.8052	0.7531	9.2255
0.9619	0.5073	9.5545
1.0911	0.4534	9.4815
1.1791	0.7735	9.4672
0.8788	0.7089	9.3619
0.9416	0.4594	9.6993
0.5216	0.7597	9.6376
0.7430	0.6993	9.3882
1.3364	0.2704	10.0959
0.9888	0.6467	9.7579
1.0977	0.8465	9.7106
0.8213	0.6885	10.2478
0.9033	0.4403	9.4008
0.8159	0.6419	9.5593
1.2538	0.8692	9.6095
0.9230	0.6275	9.3601
1.0002	0.9099	9.0903
0.7645	0.8453	9.5772
1.0157	0.4301	9.3080
0.9470	0.7101	9.6454
1.0528	0.5378	9.9122
1.0415	0.6766	9.4349
0.6090	0.7125	9.1286
1.0827	0.5862	9.8231
0.7448	0.5665	9.3816
1.2371	0.7155	9.5030
0.9817	0.7944	9.9541
0.7489	0.5216	9.2255
0.8453	0.6526	9.3732
0.8345	0.5025	9.8344
1.1803	0.4433	9.7011
1.1330	0.7765	9.8117
0.9547	1.0187	9.8303
1.0044	0.4576	10.1647
0.8907	0.6006	9.5108
0.8530	0.8291	9.2871
1.0283	0.6520	9.7112
1.1814	0.6144	9.4689
0.6730	1.1665	9.2757
0.8823	0.7627	9.8979
1.0020	0.5964	9.2691
0.9326	0.7525	9.4307
1.0798	0.8752	9.9601
0.6736	0.9894	9.2010
0.8506	0.6544	9.2644
0.9224	0.4714	9.6071
0.9152	0.5731	9.3493
1.0522	0.7155	9.3894
0.9236	0.7830	9.7208
0.7753	0.7196	9.3601
1.0002	0.5557	9.1555
0.8871	0.5491	9.6059
1.1462	0.6078	9.7441
1.3316	0.9410	9.6843
0.8776	0.5432	9.8356
0.9679	0.2979	9.8638
0.8548	1.0259	9.5760
0.8740	0.4271	9.2662
1.1689	0.4726	10.3417
0.5372	1.1874	9.5359
1.0528	0.7478	9.6251
0.9511	0.5252	9.9690
0.9990	0.8267	9.4797
1.0648	0.6927	9.2416
0.8225	0.9051	9.8015
0.9428	0.7723	9.6664
0.7801	1.0481	9.1663
0.9368	0.6652	9.7034
1.2538	0.1490	9.5964
0.8883	1.1127	9.6903
0.8417	0.4989	9.7956
1.0690	0.7442	9.5784
0.7430	1.0481	9.1597
0.8542	0.5228	9.5880
1.2963	0.3230	9.4271
0.9577	1.2903	9.4504
0.6760	0.5139	9.7369
0.6897	0.5456	9.1334
0.9906	0.6443	9.2697
0.9954	0.2417	9.8440
0.8375	0.8393	9.6430
1.1210	0.8638	9.7447
0.8375	0.4929	9.8925
0.8076	0.4163	9.4618
1.1803	0.6209	9.4791
0.8794	0.6550	9.6969
1.0469	0.5414	9.4618
1.0325	1.1850	9.6903
0.9254	0.6993	9.4313
1.0827	0.2459	9.9768
0.9888	0.7711	9.6897
1.0104	0.9398	9.7752
0.7908	0.6269	9.8769
0.7442	0.4158	9.4396
1.0451	0.7340	9.2871
1.0606	0.5605	9.6580
1.1324	0.5892	9.7776
0.9039	1.0810	9.7968
0.8692	0.7065	10.0019
1.1186	0.4822	9.3768
1.0588	0.6502	9.6616
1.0211	0.8297	10.0241
0.9781	0.6993	9.3661
0.9452	1.0570	9.2584
0.7555	0.5228	9.6364
0.9176	0.5240	9.2039
1.0612	0.9129	9.4881
1.1557	0.7783	9.8051
0.9039	0.7208	9.6101
0.7543	0.8154	9.3900
1.0014	0.3703	9.6610
0.8423	0.4504	9.2458
1.0941	0.7244	9.1148
0.7101	0.6688	9.8303
0.8859	0.5713	9.5521
0.9924	0.7627	9.4857
1.0128	0.5821	9.7866
1.0654	0.3105	10.2047
0.9170	0.9416	9.5210
0.8381	0.4911	9.5216
0.8100	0.3494	9.7298
1.1623	0.8321	9.2985
0.7549	0.3194	9.5383
0.9906	0.6185	10.0277
0.8949	0.9272	9.7531
0.6933	0.4152	9.5599
0.9111	0.5055	9.6640
0.9936	0.6891	9.6257
1.1025	0.5898	9.4779
1.0642	0.6443	9.8674
1.0187	1.2036	9.4875
0.8512	0.7328	9.4995
0.7298	0.4516	10.0636
1.1994	0.3894	9.6598
0.8692	1.0313	9.7974
0.8082	0.4971	9.7369
0.8794	0.8919	9.1465
0.8477	1.2502	9.3092
1.0941	0.3170	9.3804
0.7914	0.7693	9.5527
0.9733	1.2532	9.1316
0.7406	0.7460	9.7980
0.8411	0.3972	9.4307
0.9673	0.8237	9.4283
1.2281	0.7184	9.5784
0.9996	0.5797	9.4761
0.7507	1.1850	9.3499
0.8159	0.8554	9.5449
0.9487	0.2489	9.3894
0.7807	0.7908	9.3074
1.1282	0.6706	9.9475
0.9212	0.9428	9.3696
0.8249	0.7280	9.2943
0.9021	0.4026	9.4438
0.8823	0.4708	9.3798
1.0128	0.6496	9.3774
0.6365	0.8548	9.8494
0.9230	0.4911	9.5246
1.0648	0.6126	9.5988
0.8889	0.2052	9.7555
1.0134	0.5001	9.4354
0.9888	1.1150	9.1890
0.6389	0.5360	9.6849
0.9206	0.1717	9.5371
1.2227	0.8614	9.4426
0.8644	0.3906	10.1455
1.1330	0.5258	9.9720
0.8279	0.8919	9.7926
0.6885	0.2644	9.8566
0.7765	0.3787	9.7657
1.0169	0.6927	9.5389
1.1683	0.7747	9.7818
0.8572	0.5659	9.9182
1.1055	0.7394	9.3972
0.7489	0.8130	9.5108
0.9894	0.1531	9.6723
1.1246	0.5444	9.4486
0.9517	0.9565	9.6753
1.0241	0.6042	9.8943
0.9547	0.7819	9.6592
0.6281	0.2740	9.7824
1.0977	0.3948	10.0265
0.8931	0.9619	9.6490
1.0780	0.6401	9.6161
0.8393	0.8177	9.9571
1.2383	0.7244	9.2530
1.0433	0.5336	9.7220
1.0492	0.5372	9.8578
0.9900	1.2568	9.5497
0.7220	0.6927	9.5347
0.9009	0.3583	9.9978
1.0804	0.4498	9.6269
1.0594	0.9996	9.6538
0.8644	0.5635	9.9930
0.9523	0.8907	9.5204
0.8345	0.8064	9.2141
1.0116	0.4193	9.8010
1.1575	0.6622	9.4253
0.9870	1.0923	9.6006
0.9069	0.8183	9.9810
1.1127	0.5127	9.5330
0.6102	0.6401	9.6681
0.9787	0.4839	9.7710
0.9745	0.8674	9.5796
0.9308	1.1814	9.6352
1.0839	0.7442	10.1036
1.0726	0.6897	9.4875
1.1133	0.5001	9.5623
1.2179	0.6287	10.0325
0.9577	1.0995	9.4008
0.8387	0.7041	9.3188
0.7848	0.3386	9.9032
1.2078	0.4175	9.3780
1.0050	0.7669	9.9086
0.7920	0.6766	10.0779
1.2084	0.9051	9.7974
0.8297	0.8788	9.3176
1.0122	0.2381	9.9260
0.9625	0.9272	9.3260
1.0421	0.8518	9.5772
0.9410	0.5581	9.8356
1.0086	0.6084	9.6293
1.0181	0.6676	9.3511
1.1593	0.5300	9.7471
1.0660	0.7268	9.7178
0.9834	0.9781	9.7094
0.7699	0.5115	9.8949
1.0935	0.5318	9.3577
0.8740	0.3805	9.5096
0.9978	0.4768	10.0396
1.1210	1.1934	9.4331
0.9822	0.6664	9.8955
1.0672	0.4510	9.7716
0.9846	0.5174	9.6101
0.8429	0.6305	9.8303
0.8871	0.6802	10.0839
0.8417	0.9254	9.3864
0.8524	0.3296	9.4761
1.1270	0.0425	9.5491
1.0098	0.7280	9.5575
0.9954	0.8668	9.5270
0.7729	0.7388	10.0037
1.0756	0.6598	9.3164
0.9828	0.5145	9.6975
0.9900	0.1848	9.8925
1.1952	1.0630	9.4008
0.5749	0.8387	9.6209
0.9266	0.2500	9.4223
1.0379	0.7394	9.1782
0.6837	0.2225	9.9505
1.0510	0.6490	9.5700
0.6903	1.1940	9.5850
0.9386	0.7059	9.6652
0.8668	0.3589	9.5425
1.0253	0.6885	9.2578
0.9129	0.8148	9.8889
0.7406	0.8148	9.4719
0.7789	0.8889	9.1633
0.6945	0.4762	9.4522
1.2239	0.0688	9.6891
0.9517	1.3352	9.6029
0.8865	0.9649	9.9278
1.0349	0.6389	9.5318
0.7214	0.8183	9.2943
1.0875	0.1071	9.7046
1.1605	0.9063	9.5593
0.8148	1.3860	9.4911
0.8782	0.5533	10.0432
0.9063	0.8070	9.4289
1.0977	0.2321	9.5294
1.0247	0.5450	9.9469
0.9745	1.1438	9.5336
0.9129	0.7878	9.5611
0.9027	0.5767	9.7214
1.1127	0.5599	9.4307
1.1025	0.7801	9.6041
0.8273	0.6556	9.8662
1.0570	1.1438	9.4552
0.9505	0.7597	9.4121
0.8369	0.0951	9.9290
1.0630	0.6945	9.3553
0.7860	1.2257	9.6843
0.8776	0.5073	9.5712
0.9553	0.7460	9.2757
0.7962	0.3649	9.4755
1.0229	0.1783	9.5371
1.1390	1.0905	9.3044
0.6999	0.9009	9.4863
0.8883	0.4827	9.5431
1.0223	0.5922	9.2787
0.8740	0.3978	9.8219
0.9781	0.4989	9.5533
0.7214	1.3466	9.4785
0.8734	0.5109	9.5533
0.9398	0.3129	9.5132
0.9757	0.6784	9.4133
0.9727	0.6849	9.6741
0.8106	1.0259	9.4211
0.9398	0.8985	9.2225
0.8740	0.2614	9.3314
1.1928	0.4086	9.7112
1.1497	1.0504	9.7812
0.8046	0.7842	10.0432
1.1198	0.8148	9.4558
0.7543	0.6784	9.3314
1.0672	0.2142	9.5820
1.0469	0.9613	9.4666
0.9021	0.9595	9.6233
0.8249	0.7268	9.7734
1.0798	0.7633	9.1112
1.1641	0.0467	9.7782
0.8273	0.4355	9.8057
0.9793	1.2640	9.4229
0.6353	0.8560	9.5479
0.8632	0.3404	9.6299
1.0283	0.3882	9.5336
0.9087	0.8363	9.8494
0.8782	0.6048	9.7770
0.6963	1.3400	9.1435
0.8758	0.1430	9.4678
1.1611	0.0066	9.7627
1.0564	1.1330	9.5174
0.9571	0.9308	9.7154
0.9942	1.0935	9.7142
0.8865	0.3583	9.3086
1.1025	0.0305	9.6442
0.9410	0.6658	9.7070
1.0343	1.2526	9.6012
0.7065	0.6820	9.7453
1.1300	0.9135	9.3493
1.1450	0.1298	9.4091
0.8375	0.4708	10.0432
1.1115	1.3172	9.6687
0.7328	1.0738	9.6430
0.8034	0.1041	9.7842
1.1551	0.4433	9.5072
0.9141	0.7137	9.7609
1.0050	0.6072	9.5635
0.6227	1.3017	9.5180
0.9840	0.4223	9.5868
0.9075	-0.0293	9.6484
0.9141	0.8165	9.3385
0.8716	1.0947	9.6789
0.8022	0.7663	9.5772
1.0732	0.7304	9.2865
1.0762	0.0532	9.7471
1.0989	0.5079	9.6430
0.8231	1.2048	9.6317
0.7400	1.0205	9.7992
1.0469	0.6688	9.4169
1.1581	0.3111	9.5282
0.9404	0.4020	9.7016
0.8171	1.3711	9.5521
0.8303	1.1569	9.4648
0.9332	0.1801	9.5928
1.1246	0.4857	9.4600
0.8572	0.7938	9.5066
0.8106	0.7813	9.6825
0.9679	1.0881	9.4540
0.8034	0.2847	9.4630
1.1485	-0.2656	9.7477
0.9039	1.0140	9.1854
0.8052	1.0355	9.5288
0.8279	0.6568	9.3559
0.8052	0.5593	9.1986
0.8865	0.1101	9.7764
1.0774	0.7914	9.5635
0.5683	1.1348	9.4217
1.0313	0.6724	9.7621
0.8417	0.5342	9.4905
1.1085	0.2231	9.6400
0.9577	0.4696	9.7220
0.5318	1.4644	9.3439
1.0295	0.9775	9.4091
0.8584	0.0921	9.5222
1.1575	0.4331	9.7495
0.9739	0.8770	9.4995
0.6688	0.6652	9.8919
1.2281	0.8130	9.0873
0.7501	0.4205	9.5694
1.2730	-0.2333	9.8781
0.9577	1.1336	9.4881
0.6550	1.1946	9.5593
1.0672	0.4971	9.6741
0.5270	0.5300	9.2745
1.1940	0.1292	9.8374
0.9870	0.7603	9.8817
0.9182	1.1665	9.8051
1.1408	0.5707	9.7788
0.9948	0.5426	9.8985
1.1390	0.4026	9.5150
0.8961	0.7484	9.5796
0.8823	1.4674	9.5964
0.7501	0.4068	9.3517
0.9990	0.1430	9.8488
1.1563	0.4714	9.5294
0.8279	1.1258	9.6251
1.0469	0.7836	9.4893
0.7053	0.7729	9.2362
1.1145	0.1143	9.5090
1.0259	0.2369	9.7196
0.6233	1.4088	9.4606
1.0217	1.1934	9.3529
1.0989	0.2393	9.5712
0.9715	0.5456	9.6287
0.9954	0.3918	9.8087
0.8082	1.3645	9.6598
0.8285	1.3854	9.6382
0.8662	0.2118	9.6628
1.1491	0.2680	9.6083
0.7274	0.6903	9.5473
0.9045	0.7896	9.6478
1.0714	1.2090	9.3535
0.8004	0.3248	9.5054
1.0654	-0.2363	10.0049
0.8668	1.0899	9.5497
0.6724	1.1073	9.7489
0.9045	0.4128	9.4121
0.7621	0.7687	9.3290
1.1192	0.0156	9.8105
1.1832	0.6909	9.7878
0.5898	1.3113	9.6699
1.1539	0.6616	9.5246
0.8698	0.3164	9.7920
1.0271	0.4810	9.5928
1.1372	0.7424	9.7573
0.7166	1.2562	9.5114
1.1719	0.8213	9.2440
1.0481	0.1693	9.7190
1.1228	0.5569	9.6819
0.6712	0.9164	9.8147
0.6742	0.9057	9.4815
0.9757	0.8608	9.2596
1.1115	0.1274	9.5353
1.1910	0.1531	9.7507
0.8148	1.5984	9.4839
0.7095	0.7795	9.4384
0.9284	0.4457	9.3978
1.0026	0.4504	9.3583
0.7166	0.2973	9.8811
1.1438	1.2006	9.5180
0.6736	1.3932	9.3936
1.1390	0.0443	9.6604
1.2072	0.0329	9.8117
0.6305	0.8106	9.6556
0.8997	0.8506	9.3828
0.7735	1.3400	9.4492
0.8010	0.2034	9.5001
1.2042	-0.1944	9.8297
0.7256	0.8800	9.6759
0.8297	1.0343	9.4731
0.9535	0.7896	9.6454
1.0301	0.1992	9.7830
1.2867	0.0963	9.8273
1.0678	0.9858	9.4779
0.7143	1.3842	9.3750
0.8423	0.6897	9.4917
1.1312	0.3218	9.6514
1.0343	0.2961	9.6777
0.8255	0.9493	9.7148
0.9476	1.3741	9.3511
0.6532	0.8375	9.3523
1.2149	-0.0467	9.6245
1.1085	0.3272	9.4672
0.7478	1.2688	9.4851
0.7639	0.8459	9.2787
0.6682	0.9422	9.2775
1.2060	-0.0927	9.7136
1.1480	0.2740	9.7298
0.5444	1.2933	9.6556
0.8363	0.6048	9.5162
0.9601	0.7190	9.3003
1.0857	0.1352	9.7669
0.9571	0.8656	9.6963
0.8758	1.4530	9.5587
0.6933	0.9398	9.4067
0.9093	0.1854	9.8626
1.0313	0.3619	9.6209
0.9188	1.0026	9.4887
0.8339	0.7914	9.5784
0.8812	1.0211	9.1316
1.1719	0.2518	9.6089
1.2419	0.2303	9.6927
0.8656	1.1623	9.6394
0.6610	0.8076	9.4253
1.1001	0.9511	9.3044
1.0062	0.2680	9.7645
1.0660	0.0365	9.8584
0.9045	1.4207	9.4145
0.6269	1.3585	9.4755
0.9846	0.1047	9.3690
0.7944	0.4875	9.7118
0.7866	0.5605	9.7244
0.9105	0.8405	9.4211
0.8662	1.1988	9.4845
0.9613	0.3763	9.4851
1.1665	0.0473	9.8985
0.6999	0.7639	9.8674
0.7172	1.1115	9.6909
1.0857	0.8776	9.4911
1.0606	0.2824	9.8135
1.2132	0.1825	10.0648
1.0379	1.2586	9.5258
0.7543	1.1378	9.4271
0.9260	0.5785	9.3302
0.9745	0.4080	9.5533
0.7137	0.2943	9.8440
0.8812	0.8686	9.3846
0.5342	1.3334	9.3559
1.0026	0.5258	9.4396
1.0510	0.0389	9.5198
0.8955	0.8626	9.6245
0.8231	1.0660	9.5144
1.1797	1.0211	9.2578
0.7406	0.4265	10.0085
1.1228	-0.0951	10.0809
1.0092	0.9164	9.7070
0.5880	0.8650	9.5521
0.9260	0.6837	9.4941
0.9009	0.2752	9.6161
1.1109	0.2387	10.1144
1.0522	0.7190	9.5054
0.8273	1.3777	9.1704
0.9553	0.5246	9.7555
1.1390	0.3099	9.6562
0.9194	0.7095	9.7519
0.7424	1.0475	9.5856
0.8321	1.1168	9.3194
0.8806	0.6939	9.5228
0.9338	0.0491	9.9332
1.1204	0.4774	9.5216
0.5151	1.2449	9.5497
0.6772	0.6066	9.2668
0.7651	0.5414	9.2368
1.3244	0.0126	9.7716
1.2951	0.4738	9.7555
0.8363	1.3878	9.6777
0.9960	0.6024	9.3194
1.1073	0.2572	9.5425
0.9936	0.4223	9.6430
0.9398	0.7753	9.6681
0.8740	1.3956	9.6807
0.7430	0.5426	9.5886
1.1563	0.0006	9.9308
0.9236	0.5551	9.4947
0.6969	1.1043	9.5300
0.7478	0.6927	9.4133
0.8207	0.7711	9.0664
1.1192	0.2937	9.5766
1.2431	0.4774	9.7082
0.6784	1.4626	9.6598
1.0427	0.5689	9.4211
1.0558	0.4475	9.4127
1.1426	0.3230	9.7992
1.0714	0.8267	9.8452
0.7693	1.2329	9.6514
0.7418	0.8255	9.5671
1.1797	0.1513	9.8350
1.1258	0.4301	9.3601
0.7615	1.0205	9.9349
1.0397	0.9440	9.3481
0.7603	1.1545	9.1483
1.1192	0.0371	9.4642
1.1743	0.1501	9.6376
0.6640	1.3902	9.2590
0.6873	0.6389	9.7268
0.9882	0.5815	9.3092
1.0606	0.0353	9.7495
1.2030	0.3775	9.9116
0.7495	1.1904	9.8171
1.0648	0.8722	9.4019
0.9476	0.2668	9.6897
1.1043	0.2841	9.6592
0.8070	0.8411	9.6341
0.7573	0.9559	9.4205
0.8506	1.0026	9.2787
1.1850	0.2608	9.6490
1.0337	0.1621	9.6681
0.9302	1.4907	9.3445
0.5162	0.8435	9.4666
0.9751	0.7813	9.0143
0.8465	0.4744	9.8147
1.0810	0.1196	9.7842
1.0169	1.3035	9.4277
0.6616	0.8692	9.6209
1.1324	0.2052	9.5736
0.8752	0.2955	9.7268
1.1581	0.5743	9.7603
0.7914	1.2287	9.5838
0.7789	1.2502	9.3439
1.0151	0.2309	9.6795
1.1168	0.5354	9.3918
0.9410	1.1139	9.7405
0.6520	0.8788	9.5192
1.0798	0.8698	9.3828
0.8794	0.2417	9.4672
0.9422	0.2213	9.8111
0.6281	1.2449	9.3188
0.8273	0.9170	9.4468
1.0666	0.2584	9.5204
1.0780	0.2991	9.8159
1.1240	0.6802	10.0761
0.9470	1.2855	9.7046
0.7214	0.9344	9.7196
1.0319	0.0341	9.5461
1.0768	0.5791	9.4396
0.8746	0.8070	9.6317
0.8363	0.9182	9.3655
0.7436	0.9541	9.0012
1.0624	-0.2165	9.9050
1.2173	0.1370	9.6969
0.7627	1.3310	9.7005
0.8812	0.6329	9.5180
1.1683	0.6784	9.7178
1.1402	0.2171	9.9864
1.0935	0.5677	9.7818
0.7310	1.4237	9.2751
0.7765	0.8459	9.2566
1.0708	0.1268	9.3427
0.7878	0.3972	9.4073
0.9236	0.9242	9.4253
0.9799	1.2084	9.3415
0.7346	0.6945	10.0289
1.1402	-0.2919	10.1407
0.9338	1.0146	9.8267
0.5491	0.9135	9.8494
0.9739	0.8590	9.6472
0.9769	0.5731	9.5431
1.0660	0.0281	9.7250
0.8883	0.8847	9.4402
0.7352	1.1485	9.2494
0.9936	0.7866	9.2351
1.0630	-0.0837	9.9056
1.0307	0.6580	10.0217
0.6042	0.9541	9.8685
1.0540	1.3358	9.4600
0.6479	0.4720	9.8303
1.0038	-0.3069	9.5635
0.9805	1.3113	9.2650
0.8823	0.5797	9.5467
1.2981	0.7334	8.9880
0.8590	0.5958	9.7322
1.3256	0.3081	10.0301
0.5486	1.4106	9.3224
0.5085	1.1611	9.6993
0.8722	0.2279	9.4707
0.9637	0.3470	9.5724
1.0851	0.6616	9.5928
1.0774	0.8865	9.5826
0.7095	1.0941	9.1064
0.9685	-0.0784	9.7501
1.1731	0.4074	9.5294
0.5294	1.1049	9.7956
1.0014	0.9099	9.7704
0.9517	0.6377	9.6532
1.0720	-0.0257	9.8596
1.2646	0.3828	9.7178
0.6694	1.5123	9.4636
0.9374	0.5737	9.2997
1.0265	0.3338	9.6424
0.9164	0.8459	9.7764
0.7507	0.9308	9.6927
0.9111	1.3824	9.3846
0.9230	0.4833	9.5754
1.1910	-0.2937	9.9385
0.6526	1.1414	9.6987
0.8393	1.1515	9.5874
0.9894	0.6634	9.2159
0.7992	0.2716	9.8315
0.9781	0.4582	9.4456
0.6849	1.0289	9.5126
0.6502	1.0917	9.4438
1.2185	0.2112	9.5252
1.0146	0.3547	9.7214
0.8459	0.7065	9.6664
0.8758	1.1767	9.2356
0.6550	0.8734	9.3523
1.1180	-0.2136	9.9176
1.2269	0.7406	9.7250
0.6132	1.1348	9.7046
1.0086	0.7214	9.6795
0.9302	0.5569	9.3583
1.0744	-0.0197	9.9439
1.0845	0.9278	9.2016
0.8584	1.4608	9.2488
1.0893	0.6999	9.3272
1.2784	0.4606	9.7202
0.8554	0.4648	10.3214
0.6514	0.9613	9.3780
0.5103	1.2090	9.2590
1.1234	0.1639	9.4606
1.3669	0.4116	9.4253
0.8596	1.3765	9.4307
0.9218	1.0098	9.4821
0.9326	0.6885	9.6305
0.8895	0.1561	9.7286
0.7639	0.5288	9.7142
1.0128	1.5206	9.2165
0.7830	0.9057	9.2249
1.2227	-0.1741	9.9122
0.7789	0.7376	9.7148
0.8453	0.7819	9.8129
0.9559	1.4465	9.2279
0.5719	0.4786	9.7651
1.0163	-0.2794	9.4648
0.7860	1.0827	9.2674
0.9793	0.6855	9.6149
1.0289	0.6784	9.3224
0.8752	0.2895	9.8171
1.2293	0.6042	9.8470
0.6197	1.4381	9.2177
0.8136	0.8082	9.6903
0.8369	0.0562	9.8099
1.0780	0.2333	9.3834
0.8728	0.9147	9.6095
1.1306	0.9882	9.2584
0.8638	1.1103	9.4205
1.1234	-0.3141	10.1126
1.0720	1.0056	9.4863
0.3649	0.9661	9.4091
0.8393	0.3811	9.2004
1.0181	0.3924	9.5431
1.0804	0.2052	9.8261
1.0325	1.0463	9.9140
0.6820	1.0959	9.5820
0.7854	0.3075	9.7812
1.0666	0.3876	9.3511
0.4750	0.8285	9.5084
1.0104	0.9302	9.4002
1.0038	0.8961	9.4719
1.1180	-0.1615	9.7292
1.2778	0.7597	9.3613
0.6359	1.4171	9.3272
0.6963	0.6299	8.9886
0.9152	0.2668	9.4749
0.8590	0.4804	10.0899
1.1043	0.6413	9.9451
0.9111	1.1665	9.6550
0.8889	0.2554	9.4414
1.3525	0.4564	9.2027
0.5503	0.9410	9.6963
0.8620	1.1922	9.3649
0.9799	0.9870	9.5186
1.0391	-0.1256	9.9020
1.1497	0.4618	9.5306
0.6449	1.5135	9.5958
0.9625	0.4050	9.4307
0.9386	0.3625	9.6233
0.7753	0.4540	9.9655
1.0845	0.6305	9.7686
0.9338	1.2981	9.2865
0.8907	0.4833	9.3344
1.5194	0.3129	9.5192
0.5354	1.1097	9.7094
0.8889	0.9356	9.5862
0.9123	0.7394	9.7124
0.8100	0.0497	9.7208
1.0606	0.6012	9.4947
0.6790	1.4710	9.4349
0.9410	0.6562	9.0006
1.2311	0.1956	9.6711
0.8124	0.6419	10.0965
0.9709	0.9482	9.6879
0.8722	1.2203	9.3355
0.8626	0.2040	9.4079
1.4788	0.3075	9.5641
0.6437	1.1623	9.8267
0.8590	0.9852	9.4097
0.9840	0.5216	9.3158
0.8494	-0.0221	9.7992
0.8345	0.4672	9.3786
0.7358	1.6253	9.2997
1.0122	0.8249	9.3206
1.3472	0.2560	9.7094
0.9523	0.6227	10.0492
0.8650	1.0504	9.6861
0.7507	1.0283	9.1974
0.7777	0.3571	9.8656
1.0427	0.2512	9.9266
0.9206	0.9852	9.7310
0.9715	0.7609	9.7046
0.9422	0.7777	9.2727
0.8136	0.2740	9.5718
1.1707	0.6317	9.3984
0.6185	1.7109	9.1639
1.0451	0.5503	9.5330
1.2813	0.0191	9.7842
0.8363	1.0169	9.7046
0.8345	0.7639	9.7268
0.9499	1.0798	9.3373
0.7729	0.1382	9.9188
1.2138	0.2411	9.8225
0.8835	1.3812	9.5144
0.8686	0.7208	9.4504
1.0995	0.5157	9.6879
0.5222	0.4439	9.6915
1.0481	0.7358	9.6161
0.8913	1.1928	9.4319
1.0026	0.2231	9.7525
1.4560	0.1819	9.4049
0.7615	0.9715	9.6358
0.9840	0.9099	9.4390
0.7633	1.0935	9.4019
1.1491	-0.1735	9.7944
1.1324	0.5641	9.4408
0.6102	1.5499	9.2333
0.9954	0.4600	9.7698
1.1246	0.3643	9.7016
0.7687	0.7513	10.0127
1.0762	0.8159	9.6053
0.8094	1.2102	9.1172
1.3603	-0.2118	10.1054
1.2084	0.1292	9.9164
0.6610	1.7240	9.1513
0.9601	0.7322	9.4025
0.8046	0.5497	9.7148
1.0235	0.1615	10.0325
1.2221	0.5216	9.6634
0.7519	1.2766	9.2243
0.6508	0.5270	9.4905
1.2819	0.5569	9.3080
0.5862	0.4714	10.1641
1.3890	0.5647	9.1669
0.5133	1.1659	9.6951
1.2550	-0.1968	9.9134
1.1097	1.1545	9.4468
0.6676	1.2640	9.4624
1.0062	0.5037	9.7328
0.8638	0.1609	9.4103
0.8620	0.3894	9.4785
1.1103	1.0810	9.1872
0.4684	1.3561	9.1830
1.1007	-0.3625	9.7064
1.0810	0.4313	10.0426
0.9368	1.2072	9.1495
1.1569	0.6861	9.4103
0.6718	0.6879	9.6454
0.9482	0.2010	9.7818
0.9583	0.9302	9.9768
0.6496	0.7687	9.5389
1.1025	0.1866	9.3092
0.8590	0.3386	9.7878
0.7998	0.7394	9.6358
0.7424	1.5111	9.1017
0.7238	0.3505	9.8344
1.0486	-0.0078	9.5635
1.2562	0.8674	9.4253
0.6820	0.8584	9.7920
1.3244	0.9858	9.2153
0.8375	0.4911	9.6538
0.6814	0.1938	9.7423
0.6335	1.5326	9.2207
0.8925	0.5390	9.6759
1.5763	-0.0766	9.3009
0.4391	1.1832	9.6729
1.2221	0.5737	9.4695
1.0050	1.1282	9.3003
1.0510	-0.0664	9.9631
1.2538	0.3164	9.8434
0.8435	1.4034	9.1956
0.8261	1.0636	9.1280
0.8483	0.1286	9.8691
0.8148	0.4205	9.9864
1.3998	0.8387	9.4103
0.8243	0.9906	9.5784
0.7466	-0.0909	9.5563
1.2144	0.7860	9.6161
0.6203	1.0588	9.7028
0.9625	0.6915	9.0364
0.8052	0.7149	9.7782
1.1988	-0.2148	9.6885
1.0098	1.4847	8.8630
0.6700	0.9763	9.7005
0.8740	-0.1496	9.8087
0.9990	0.2949	9.5449
0.6939	0.7819	9.9379
1.2311	0.6879	8.9036
0.3834	1.4142	9.6723
1.4213	-0.3494	9.6592
0.6036	1.0678	9.4037
0.8010	0.5168	9.3206
0.9691	0.5958	9.8548
0.7394	0.4014	9.3577
1.1605	0.6736	9.5766
0.8650	0.6802	9.4654
0.8267	0.7980	9.5617
1.8281	0.0311	9.7477
0.3811	0.8339	9.6017
1.1832	0.6772	9.4803
0.9398	0.9182	9.7543
1.0660	0.2315	9.6861
0.9978	0.9984	9.5874
0.5755	0.9326	9.8590
0.8961	0.6879	9.4534
1.5721	0.6269	9.6370
0.3775	0.4301	10.1234
0.9661	0.8943	9.1328
0.5228	1.0678	9.8159
1.2694	-0.0981	9.4773
1.0768	1.1121	9.3948
1.0684	0.7741	9.6460
1.2544	0.6993	9.6329
1.2024	0.3476	9.8362
0.7340	0.3613	10.0229
0.8841	1.0415	9.1698
0.7155	0.7663	9.7854
1.7252	0.0263	9.3409
0.6514	1.1258	9.9762
0.8064	0.7687	9.0622
1.0193	0.9158	9.1399
0.9081	0.3314	9.6083
0.9069	0.8758	10.0067
0.6455	1.0720	9.9457
0.8094	0.6215	9.4378
1.3388	0.3667	9.2075
0.5773	0.5581	9.7531
0.9972	1.1551	9.2542
0.8841	1.0014	9.6705
0.8901	0.1250	9.5072
0.8177	0.8225	9.4983
0.6724	1.0971	9.4678
1.4590	0.6413	9.4462
1.1635	0.2752	9.9367
0.9583	0.4588	9.5898
0.8638	1.2951	9.1938
0.7268	0.6018	9.8171
1.3609	0.2931	9.3427
0.6317	0.9003	10.1359
0.6084	0.6437	9.6472
0.7771	1.3980	9.1908
1.2371	-0.2572	9.9589
1.4471	0.5216	9.4929
0.6299	1.3406	9.8733
0.7807	0.6269	9.8793
0.9924	0.5844	9.3978
0.4223	0.2399	10.1126
1.3232	0.5432	9.5096
1.1533	1.5015	9.1262
1.2437	-0.0203	9.7471
1.1420	1.2341	8.9545
0.2022	0.6060	9.6520
1.0481	0.4481	9.7393
0.5336	0.7065	9.6502
0.6431	0.2608	9.9290
1.3394	1.0056	9.5425
0.7208	0.3709	9.8775
1.7426	-0.1711	9.5796
0.6897	1.7073	9.2392
0.7675	0.5145	9.4510
0.8973	0.8829	9.8590
0.5180	0.2213	9.8817
1.4303	0.6724	9.6699
0.7101	1.2897	9.2117
0.9158	0.5826	9.8763
1.1527	0.4714	9.8614
0.5725	1.2688	9.1788
1.0534	0.6790	9.2811
0.2782	0.2231	9.8865
0.9583	0.2417	9.4163
1.2867	1.2987	9.5964
0.7932	0.8901	9.1226
1.2562	0.2154	9.6275
0.6951	0.6108	9.6496
1.0869	1.2323	9.0466
0.9278	1.1139	9.6735
1.0134	-0.1501	10.1240
1.0086	0.6772	9.3732
0.7795	0.9224	9.2506
0.9057	0.9870	9.0759
1.2413	0.2070	10.3770
0.4313	0.2758	9.9846
1.0253	1.5410	8.8737
0.3787	0.7119	9.5174
0.9176	0.2046	8.9521
1.0026	1.0989	9.5413
0.9194	0.2369	9.7914
1.4889	1.1288	9.3194
0.9589	0.2447	10.0384
1.2568	0.3870	9.6646
0.2602	1.6325	8.8462
0.8022	0.0108	10.2005
1.4596	0.5749	8.8959
0.4199	0.2943	10.0971
1.4345	0.5103	9.1375
1.0415	1.8084	9.3427
0.8518	0.1525	9.9996
1.0983	1.6738	9.4576
0.1651	0.2752	10.3130
1.1719	0.5097	9.8506
0.7597	0.8004	9.6083
0.8273	0.4696	9.8709
1.3148	1.1091	9.0891
0.6102	0.2536	10.0013
1.4040	-0.0162	9.7698
1.0307	1.5416	9.0747
0.8195	0.6814	9.4911
1.1450	0.3153	10.0037
0.5665	0.4720	10.0325
1.3932	1.2951	9.1328
0.7059	1.2353	8.9868
1.1916	0.0120	9.8931
0.7304	0.9164	9.8745
0.6485	1.2754	9.1537
0.8016	0.9135	9.3810
0.5533	0.1292	9.5389
1.0020	0.6197	9.6526
0.4600	1.0349	9.5449
1.1420	0.8907	9.3361
1.4686	0.4522	9.6382
0.7023	0.3380	9.7064
0.7657	1.2640	9.0083
0.9290	0.7119	9.6813
0.9655	0.0837	9.5342
0.9751	0.6730	9.5533
0.3781	0.7316	9.7429
1.5446	0.7597	8.9072
0.6903	0.3470	10.0127
0.8429	0.2895	9.6203
0.5958	1.3639	9.5515
0.5432	0.2740	9.8117
1.3101	0.5007	9.4666
0.5563	0.9960	9.8159
1.2628	0.6676	9.2787
0.9248	0.4528	9.8685
0.8393	0.0963	9.7190
1.3107	1.5356	9.1854
0.4750	0.9218	9.3373
0.8518	-0.0114	10.0408
0.9045	0.6538	9.6670
1.2586	0.7065	9.5844
1.0636	1.0086	9.6143
1.0397	-0.0006	10.2083
1.1880	0.6981	9.6801
0.6407	1.4770	9.0341
0.7507	0.7083	9.2949
1.2012	0.4690	9.1842
0.3661	0.6903	9.9236
1.1737	0.6927	9.2859
0.9505	1.1450	9.3595
1.2909	-0.0568	9.2937
1.0187	0.7370	9.6454
0.4899	0.6365	9.5635
1.3699	0.5085	9.6023
0.8794	0.5545	9.5186
1.1360	0.5635	9.7854
1.0881	1.5212	9.3469
0.7699	0.4247	9.7651
1.0588	0.1699	9.7423
0.7400	1.2461	9.5240
1.0660	0.7615	9.4995
0.7029	0.4128	9.9673
0.8530	0.2423	9.8111
1.1240	1.4441	9.6251
0.9302	0.6993	9.0592
1.2550	0.3075	10.0893
0.9559	0.2453	9.9535
1.1468	1.7485	8.9120
0.8889	0.8243	9.8578
0.9745	-0.2249	9.2177
1.0277	0.9589	9.7298
0.5934	0.5821	9.7154
1.1348	0.8357	9.0520
1.2221	0.4702	10.2329
0.7938	0.4654	9.3804
0.7543	1.1539	9.5856
0.3236	0.2847	10.3591
1.5404	0.5133	9.1878
0.3045	1.1258	10.1611
1.5607	0.7418	8.8307
0.8453	1.0062	10.1455
0.9129	-0.1579	9.8315
1.3902	1.6618	8.9246
0.5593	0.7872	9.6933
0.8363	-0.0616	9.6777
0.6891	0.6263	9.3302
0.8231	0.6586	9.2793
1.5499	1.1085	9.0029
0.7651	0.2722	10.1306
1.7982	0.6664	9.6335
0.2656	1.6002	9.2219
1.0600	0.1364	9.5952
1.1252	0.6431	9.6544
0.2638	0.5354	10.2000
1.5302	0.9141	9.4540
0.7089	0.7310	9.4163
1.0654	0.0006	9.6155
1.4207	1.1402	9.8123
0.4504	0.9930	9.7962
1.4088	0.0162	9.7028
0.7807	0.0401	10.1228
1.4351	1.1892	9.2985
1.1928	1.3729	9.1866
0.9458	-0.1693	10.3220
1.1910	1.0606	9.3230
0.5671	0.8285	9.5294
0.9637	1.0762	9.0460
0.6221	0.2381	9.8021
0.5611	0.2058	10.0456
0.8656	1.2819	9.1292
0.6102	0.3924	9.7944
1.3549	0.6909	9.2309
0.7448	0.7603	10.0606
0.7813	0.6419	9.6472
1.1091	0.9763	9.3744
1.0032	-0.0335	9.9738
1.3830	1.2652	9.3355
0.5605	0.7813	9.6107
1.1659	-0.0879	10.1545
1.0086	0.2297	9.9858
0.9607	0.9912	9.6394
0.9745	1.3579	9.4797
0.8118	-0.1077	9.8004
1.0851	0.4415	10.0283
0.9643	1.4040	8.8773
0.6126	0.8231	9.3290
1.0636	0.3882	10.0247
0.8698	0.6778	9.8997
0.7412	0.6891	9.8261
1.0044	0.4487	9.5497
1.2628	0.2680	9.6867
0.8309	0.7107	10.0797
0.7095	0.8471	9.4396
1.1360	0.6030	10.0348
0.7926	-0.0826	9.2542
1.4016	1.3717	9.2883
0.9099	0.8345	9.5300
1.1240	0.7041	9.3619
0.9296	0.4146	10.0923
1.1569	1.0869	9.2267
0.8094	1.2718	9.5892
0.5599	-0.1848	10.1575
1.1809	0.8656	9.4833
0.5719	0.5599	9.8440
1.0738	0.3553	9.2027
0.8405	0.6742	9.8141
0.8255	0.0018	9.7758
0.7962	1.2502	9.4612
0.6772	0.2752	10.2520
1.4961	0.2279	9.5072
0.5779	1.1569	9.8727
1.0361	0.7298	9.1758
1.1384	0.5743	9.6849
0.6915	0.1316	9.8051
1.6457	1.3621	9.2949
-0.0239	1.0983	9.1405
1.0798	0.1376	9.4181
0.6616	0.9697	9.7405
0.8871	0.5234	8.9665
1.2120	1.2778	9.6101
0.8853	-0.1184	9.6616
1.0869	1.1856	9.2476
0.2548	0.6156	9.6299
0.9230	0.5270	9.4552
1.1707	1.2090	10.0079
0.4869	0.3619	10.0175
1.5272	1.9358	8.9228
0.7854	0.6957	10.6319
1.6983	-0.1418	9.9637
0.7813	1.2251	10.2723
0.4122	0.0987	9.0281
0.9799	1.2879	8.6781
-0.0377	-0.1920	9.5066
1.4877	1.5912	8.5471
0.5671	0.2782	10.1724
1.3418	0.0167	9.9403
1.3472	1.0989	9.4217
0.4905	0.2465	10.0953
1.5643	1.3388	9.1118
1.0546	-0.0826	9.9625
1.1563	0.6114	9.2751
0.6706	1.1820	9.3577
0.6197	0.0102	10.6366
1.3950	0.8692	9.6364
0.1944	0.6562	10.0366
1.3723	0.9649	8.9826
0.7220	0.0628	10.2257
0.9290	-0.3434	9.9128
1.4770	1.8251	9.3068
0.7077	0.2213	9.5485
1.3304	0.8004	9.4085
0.4116	0.1346	10.2149
1.1515	1.1581	9.4504
1.0881	0.5940	9.5342
1.0810	0.0114	9.7459
1.5152	0.9021	9.1334
0.3188	0.5264	10.0133
1.1408	0.7735	9.4923
0.4839	0.1998	9.9756
1.3131	1.8395	9.1214
1.0253	1.2317	9.3409
0.8447	-0.1256	10.3818
1.7055	0.7824	9.6071
0.3990	0.9386	9.5850
1.3603	1.3304	9.0179
0.5521	0.2106	9.7471
1.1150	0.6191	9.6813
0.5826	0.8321	10.0061
1.0110	0.6413	9.4929
1.4291	0.2500	9.4749
0.6251	1.1402	9.7381
1.2449	1.4488	9.1740
0.6742	-0.3494	9.8691
1.0367	0.3374	9.0939
0.7783	1.3394	9.2566
0.8052	0.6185	9.2733
1.2610	0.1328	10.0731
0.7609	0.2572	10.1784
0.7549	1.2526	9.3972
0.8213	0.4780	9.6059
0.9135	0.2165	9.7082
0.8459	0.7705	9.5437
1.1611	0.7789	9.8404
1.0271	1.1832	9.5449
1.0379	-0.1238	9.9541
1.3148	1.5547	8.7780
0.4977	0.9081	9.0047
1.3274	0.0981	9.8039
0.8022	0.9661	9.6562
0.5815	0.5019	9.6556
1.1007	0.8375	9.5234
0.9446	0.2237	9.7226
1.2484	0.8381	9.4325
0.3206	1.1252	9.0149
1.1306	-0.0173	9.6993
0.9398	0.6197	9.5240
0.7400	1.1874	9.6466
1.0325	0.9858	9.0215
0.8919	0.2596	9.8560
0.9063	0.6287	9.9972
0.5958	0.9009	9.1633
1.0014	0.4720	9.4917
0.8925	0.5653	9.0885
0.7501	0.8189	9.9529
1.0750	1.1791	9.7513
1.1438	0.0054	10.0259
0.7986	0.4325	9.5724
1.1994	1.5499	8.9629
0.7801	1.1665	9.6245
1.2831	-0.1687	9.6735
0.5055	0.7346	9.9355
0.8572	0.7525	9.1435
0.9643	0.9033	9.1555
1.1767	0.2716	9.8488
1.1432	0.5336	9.5790
1.1354	1.1079	9.4145
1.0624	0.2500	10.0067
0.6526	-0.1412	10.1659
1.4471	1.0869	9.4378
0.4845	0.6173	9.5724
1.2245	0.6957	9.7363
0.6287	0.3063	9.9708
0.6317	0.9781	9.2859
0.9164	0.5162	9.6299
0.8249	0.2303	9.6125
1.0768	1.3950	9.1591
0.6233	0.8943	9.7034
1.0050	0.6664	9.8674
0.9697	-0.1741	9.8045
1.0690	1.6433	8.6626
0.7543	1.3346	8.6482
1.0421	0.4044	9.7220
1.0941	0.4642	9.6053
0.3188	0.3188	10.1503
1.3196	0.3799	9.6179
0.9272	0.3452	9.6329
1.1533	1.1312	9.5168
0.8393	1.2167	8.9377
1.0606	0.0006	9.7537
1.3507	0.8255	9.3439
0.2752	1.2233	9.5324
1.2885	0.8746	9.1363
1.0816	0.0461	9.5455
1.1755	0.7962	9.5724
0.4134	0.9063	9.7752
1.1569	0.0826	9.5030
0.8740	0.5384	9.8506
0.8052	0.9517	9.1788
0.6425	1.7988	8.7894
1.0367	-0.4026	10.0414
0.9948	0.9685	9.7357
0.7651	0.4026	9.6951
1.1300	0.8219	9.1698
1.2114	0.7507	9.1716
0.8267	1.0528	9.7130
0.8070	1.2508	9.5766
0.7890	-0.5210	10.3950
0.9535	0.4098	9.5790
0.7131	1.0092	9.5838
1.1797	0.8441	9.2614
1.3573	-0.0796	9.3589
0.7950	0.6610	10.1772
0.8028	1.5697	9.0975
0.6096	0.2357	9.5186
1.2269	0.3446	9.3810
1.1695	0.7460	9.7310
1.2873	1.6738	8.9659
1.1485	-0.3290	10.4440
0.7627	0.1286	10.2275
0.7047	1.3077	9.2267
0.7238	0.0796	9.2141
1.1623	0.6987	9.2973
0.8650	0.8309	10.1617
1.1809	1.4034	9.5934
0.9817	-0.4265	10.2723
0.7753	0.7645	9.5922
0.9697	1.7396	8.9515
1.0971	0.8488	8.9533
1.2568	0.6323	9.4695
0.6078	0.1735	10.2646
0.9511	1.7103	9.4504
0.5898	0.3266	10.1371
1.0510	0.2088	9.9804
1.2018	1.2760	9.5013
0.8686	0.9302	8.7966
1.2556	-0.0407	9.5575
0.3404	0.2536	10.2807
0.8177	1.4764	9.1274
0.6724	0.2710	9.2877
1.1767	0.5916	9.2763
0.6646	1.1402	9.9361
1.0708	1.5230	9.3882
1.3095	-0.3966	10.9028
0.6945	0.3272	9.9661
0.9314	1.5093	9.4636
0.9188	0.4110	9.2739
1.3878	1.0845	9.0843
0.5390	0.7531	10.2161
0.8919	2.4233	8.8157
0.6580	-0.1310	10.6701
0.2477	0.4594	10.2011
1.1091	1.4506	9.9140
1.2102	0.0347	9.2799
1.9322	0.1519	9.8075
1.0570	0.6646	9.6341
1.1360	2.0465	8.3772
0.7358	-0.0251	9.7788
1.2221	0.2094	10.0163
0.1071	1.0403	9.7633
1.3023	0.6054	9.7489
0.6461	0.1801	9.1902
0.6060	1.1485	9.0299
0.6784	1.6660	9.2093
1.7001	-0.8243	10.5206
1.4877	-0.0628	9.8578
-0.0485	1.0792	9.2273
1.6098	1.4076	7.7342
0.0820	0.3045	7.6390
1.4674	0.8136	8.9001
0.2417	1.3005	9.4731
1.5021	0.3015	10.1940
0.9942	0.6736	10.0779
0.3260	0.9081	8.9605
0.9440	1.0427	8.5609
0.9487	0.1017	9.5234
1.3884	1.3322	9.1190
0.6203	1.4829	9.1166
1.3735	0.5336	10.2741
0.9547	0.2794	9.7232
0.7095	1.4040	9.3750
0.7513	0.6658	9.7100
1.2203	-0.2315	10.3507
0.5037	1.7228	10.0420
0.8656	1.1450	9.2608
1.5338	-0.0993	10.6384
0.4516	0.0407	9.8859
1.2269	1.3711	10.1778
0.4301	0.7663	10.0755
1.5978	0.1759	9.8793
0.4947	1.0217	8.5645
1.2000	1.9609	9.0239
1.0540	-0.0921	9.2757
0.9290	1.2072	9.5300
0.4750	0.9691	9.7399
0.6496	0.1484	10.5666
1.7557	-1.2490	10.2053
0.4827	1.0504	9.1028
1.4901	1.3824	8.8468
0.8381	0.5797	9.6185
1.9244	1.4297	10.5744
0.1735	1.2538	8.6057
2.0213	-0.4349	9.7986
0.7256	-0.0114	9.6939
0.8626	1.2861	8.7774
0.3428	1.0104	9.7860
0.5653	0.7956	10.0163
0.3278	1.2096	9.4271
-0.1986	1.4399	9.5557
1.4267	-0.4726	10.0372
0.5767	0.6676	9.5072
1.3328	1.2748	8.7122
0.9697	0.0012	10.3866
2.0913	-0.5019	10.7497
0.2674	1.7264	8.6135
1.5781	1.2066	8.0141
1.3489	0.0197	8.8402
1.4877	0.9003	9.8560
-0.0538	2.2911	9.5605
0.8913	0.3637	10.2089
1.2586	-0.0036	10.6169
0.2004	0.3494	10.1012
0.9649	1.2275	9.0197
0.3248	-0.2608	9.5359
1.3160	1.8915	9.6646
0.4433	0.5958	9.2016
1.7898	-0.2560	10.3046
1.2359	-0.1603	9.4295
1.3286	1.2532	9.5988
0.6485	0.6269	10.8460
1.0128	-1.2299	10.6193
-0.0090	1.8138	8.7535
1.1563	1.1725	7.6187
0.6018	0.6616	7.3938
0.8901	0.0514	9.3308
0.8022	2.4335	8.6823
1.7168	0.1268	9.8715
1.0929	-0.3607	9.7357
0.4756	1.1402	9.1734
0.3182	0.6383	9.6610
0.7555	-0.4415	8.9019
0.4684	1.6648	9.6526
0.5832	1.1079	9.6412
1.3011	-0.1328	10.2317
0.7902	0.5468	10.1156
1.2658	1.0810	9.9840
0.8165	-0.0024	10.9160
1.2502	-1.0014	10.7090
0.0497	1.8030	8.1870
1.1264	0.6825	7.8670
0.8399	0.2459	8.6859
1.9759	0.6772	9.7190
0.4062	1.6522	9.0789
1.6660	0.7298	10.0492
0.6700	-0.3093	9.4989
0.5121	1.1127	9.6119
0.0867	0.3338	9.3762
0.6293	-0.2411	10.4081
0.6730	1.8772	9.8679
0.9416	0.6072	9.9756
1.6558	-0.1460	10.2095
1.3759	0.5599	9.7537
1.1497	1.9035	8.4771
1.0283	0.7645	10.4572
1.3059	-0.2991	10.5481
-0.2794	1.2957	9.1818
1.2401	1.1348	8.2773
0.5755	-0.8512	9.0843
1.7755	1.1180	9.8051
0.5049	1.5416	9.1316
1.9771	0.2937	9.3385
0.6646	0.4253	9.9864
0.9649	1.1252	9.6915
0.3141	0.8124	9.4199
1.5936	-0.6120	9.9463
0.2680	2.0399	9.4911
0.4277	0.5701	9.2590
0.8267	-0.4463	9.2494
1.3196	0.4522	10.0031
0.7166	2.8391	8.9647
1.2407	0.9589	8.3491
1.0546	1.1210	9.6658
0.6293	0.1717	9.1100
0.7561	-0.0724	8.4245
0.1819	-1.9166	9.4737
0.9464	2.1834	8.8761
0.6646	1.6630	7.7922
1.2377	0.0365	8.7714
1.3555	0.2602	7.9687
0.5940	1.7109	8.8743
1.7150	0.5007	10.3980
1.1330	0.5222	10.3854
0.6263	1.4441	9.6801
0.8189	-0.1741	9.0239
1.0510	-0.6335	10.0959
0.6532	0.7645	9.1094
1.0594	2.0207	8.2516
0.9117	0.0150	8.6165
1.4339	0.7274	9.5120
0.5366	1.2149	8.4604
1.8161	0.4504	9.1633
0.9003	-0.5186	9.6173
0.2937	1.7294	10.1210
0.4911	0.7292	10.2436
1.0193	-0.5222	10.5589
0.1149	1.5362	9.0089
0.8656	0.7741	8.1613
-0.0592	0.3033	8.8331
0.7920	1.8526	9.1603
0.0568	2.2151	7.5248
1.7091	0.1424	9.2781
0.3739	-0.3661	9.9326
1.1814	0.9164	9.5569
0.6538	-0.5641	10.4871
1.6151	-1.0588	9.3541
-0.0915	1.4315	8.0799
1.4034	1.4363	8.6458
0.3117	-0.6323	8.8678
1.0187	0.8064	10.4123
-0.3242	2.0255	8.5758
2.0488	1.1342	8.7302
0.8524	0.6485	8.8576
1.0319	0.9147	8.8624
1.4285	0.2506	9.3786
1.4937	-0.3882	9.7094
0.0748	1.9495	8.1074
1.8090	-0.0820	8.9156
1.1533	-1.5727	9.5102
0.2566	1.5523	8.0949
1.2341	2.6746	5.1625
0.9422	1.0403	5.1176
2.2708	1.0128	7.1066
-0.1926	1.0451	9.2925
2.3868	-0.4804	9.2560
-0.3769	-1.0540	9.8883
0.7615	1.2281	9.6843
-0.0018	-0.5180	9.2362
1.1216	-0.0640	9.9864
-0.2608	0.7352	8.7768
1.4285	1.7575	7.8490
-0.1639	-0.3176	9.7076
0.8207	1.4321	9.1369
-0.1047	1.4130	8.6392
0.9613	0.2889	9.3864
0.8901	0.3057	9.9206
0.1872	1.3998	8.5555
1.0522	-0.5773	10.3836
1.8975	-0.3051	10.9908
0.3649	1.4638	9.1609
0.8327	0.1029	9.5024
1.4471	-0.9027	9.8189
0.2668	0.6132	9.6771
1.3442	1.2945	9.6352
1.0875	-0.5462	9.8871
1.2790	1.8143	8.3001
1.4572	1.6486	8.5944
0.1968	0.4576	8.8719
0.8997	0.0520	9.9900
0.5306	1.7456	8.9814
1.3310	0.5420	10.0552
0.9727	0.4929	9.6239
0.4379	0.3063	10.3274
1.3328	-0.0999	9.9565
1.7964	0.5599	8.7535
0.2112	1.2215	6.4397
0.7842	1.8173	5.2163
0.0754	-1.1474	7.8616
0.4116	0.9972	8.8420
0.8303	2.0171	8.3264
0.8800	-0.3021	9.9206
0.9625	0.1950	9.4552
1.2197	2.2020	8.6961
1.8239	0.0951	9.2177
1.5129	0.8818	10.4333
-0.4158	0.5025	9.3361
1.4710	0.2536	10.4243
0.6239	0.5270	9.1543
0.9087	0.1555	9.6831
0.7478	-0.4552	8.9180
1.4985	0.0975	9.5318
0.1448	2.0010	8.4317
1.0492	1.9806	6.3733
-0.0837	-1.1306	8.3617
0.3870	0.6963	7.5493
0.3422	1.4506	8.0069
1.0732	-0.1519	9.1447
0.9458	0.9709	8.1667
0.9906	1.9681	8.5621
2.1027	0.4187	8.6727
1.6343	0.4020	10.9579
0.0724	1.2323	9.5443
1.1671	0.3984	9.2291
1.5505	0.4002	9.9613
0.9912	0.1872	10.1694
0.8590	0.2243	10.0253
1.5757	0.0377	10.4350
0.5749	0.8417	8.8205
0.8985	0.7131	8.7948
0.8052	-0.3326	10.3453
-0.1107	1.7246	9.2895
0.9888	1.6480	8.2259
1.2269	0.4427	9.6789
1.2239	0.0855	10.0893
0.8680	2.2301	8.5621
1.6660	1.0678	9.5312
0.6873	0.3906	9.8225
0.4666	0.7388	9.5784
1.1204	0.3894	10.1084
0.8351	0.0359	10.8382
0.2704	0.7005	9.6562
0.6485	0.7824	9.1495
0.3757	-0.4205	10.1138
1.3812	0.1448	9.2141
0.5653	0.7926	9.4061
1.3884	-0.0820	9.0197
0.1328	0.9553	8.7625
1.4991	1.3448	7.3292
0.3499	0.6275	9.9505
1.5027	1.0397	9.5108
-0.0048	1.4680	9.0921
2.4855	-0.0514	9.1369
0.7238	1.2000	10.5212
0.8835	0.7693	10.1431
1.5966	0.5832	9.9469
1.8293	-0.2261	10.2652
0.3416	0.2040	9.2985
1.4865	0.4989	9.4719
0.3482	-0.8692	10.1377
0.9063	1.8227	9.9996
0.7442	1.0726	9.3667
1.4794	-0.3117	9.9349
0.7125	-0.1418	10.0869
1.6439	2.4592	9.3397
0.5952	0.1346	8.7110
1.4345	1.0612	8.9856
1.0373	0.7675	9.5916
0.6449	0.6873	9.4803
1.3555	0.0688	11.1122
0.6437	1.4859	10.0289
1.1480	-0.0251	8.6697
0.9039	0.8889	9.5940
0.3649	0.6443	8.7858
1.2736	-0.3218	9.5677
1.3137	0.6885	8.9748
0.7908	0.4917	8.8468
0.7657	1.2461	7.3094
1.4022	0.2901	9.5342
0.8201	0.4337	9.4474
0.5593	1.2096	9.1202
1.2293	-1.0720	10.1060
0.9099	0.0365	9.5270
0.0257	2.2014	8.4059
1.2096	0.5665	8.5645
1.1683	1.6319	10.5972
1.3472	0.9637	9.3673
1.4303	0.9326	10.5355
1.5356	0.2142	10.3178
0.5055	1.9741	9.0855
1.5882	-0.1143	9.2039
0.7968	0.8010	9.3254
0.6455	0.8339	9.0239
1.0481	0.8327	8.6656
0.4062	-1.1240	9.9996
-0.5055	1.2323	8.8600
1.0510	1.7850	7.0725
-0.2518	0.5210	7.8323
1.6576	0.6209	7.1946
-0.1878	1.5141	8.0907
2.5268	1.0271	8.8193
0.9470	0.6132	10.1012
1.4285	1.3442	8.9144
1.2855	0.4086	10.5008
2.2110	1.0349	11.3150
0.7436	0.6263	9.6771
1.2060	0.1358	9.2560
0.8494	-0.5342	9.9367
0.2560	0.8142	8.9766
0.8931	-0.3930	9.4277
0.6006	-0.9200	10.2317
0.2746	0.7155	9.2321
1.6116	0.1717	9.2087
0.5593	-0.0909	9.3152
1.1701	1.6211	8.6039
0.8734	1.6199	8.5722
1.2640	0.7537	7.2861
1.5805	-0.1089	7.3417
0.6383	1.5075	8.5148
1.2532	1.3065	9.1692
1.7456	0.1071	10.1629
0.8022	1.0738	10.1928
0.2961	0.5605	9.4965
0.5378	0.5964	10.3459
0.2058	0.1352	9.5479
0.7699	1.4764	10.0432
1.2867	-0.3182	9.9116
0.3356	1.7222	8.9030
1.6833	1.6552	7.6558
-0.1364	-0.2441	9.1399
0.7573	0.6688	8.7613
0.9260	1.4058	7.7497
0.9763	-0.1172	7.9716
0.1783	0.8159	7.3908
1.0947	1.6259	7.4063
1.0481	0.2064	9.1621
1.5649	0.8088	10.1958
0.7854	0.9093	10.3070
1.5583	0.8991	9.9690
1.7820	0.0467	10.9477
1.3095	0.9499	10.1958
0.9200	0.3135	10.0049
1.0469	0.5779	9.6556
0.4044	0.9003	8.9168
0.7986	0.4349	9.0711
0.7489	-0.6407	9.6293
-0.3924	1.6295	9.2404
0.9087	1.8879	7.7617
-0.2710	0.5330	8.4574
0.6514	0.9356	8.1996
1.2335	1.0558	8.6626
1.4548	0.1890	9.4055
1.0941	0.6024	9.2434
0.6395	2.1446	9.2662
1.6050	0.2070	10.3310
0.6676	1.3591	11.3072
0.0676	0.6742	9.5611
1.3274	0.0993	9.4821
1.0014	0.1687	9.3266
1.0056	0.5880	9.6370
1.7521	0.2548	9.0394
1.6457	0.9057	10.0331
0.7400	-0.1872	9.8829
0.8345	0.2889	9.8027
1.4201	0.3362	9.7818
0.9404	0.1525	10.4356
0.8046	0.4038	10.4327
1.0810	0.6520	10.5134
0.5934	1.0690	9.0556
1.1952	1.1503	8.5812
-0.0766	0.8261	10.4572
-0.0658	0.4654	9.2297
0.6419	1.9256	7.9902
0.5803	-0.3930	9.1453
-0.3511	0.8333	7.4763
1.2754	2.5011	6.7986
0.9368	0.2644	8.2785
1.6660	-0.0150	9.3218
1.2323	0.5701	9.5766
1.9346	0.6485	9.4701
1.8933	0.1334	10.4440
1.1593	0.8034	9.4295
1.6301	0.4337	10.2305
1.0457	0.9763	9.7680
0.7017	0.4756	9.4002
1.1127	0.2130	9.6496
1.2185	1.9980	10.6875
0.5677	-0.0144	9.7555
1.4249	0.7819	10.2209
0.5809	-0.4911	10.9489
0.2650	1.5805	9.7112
0.4487	0.6861	10.2777
0.0365	-1.0211	10.4452
0.2237	1.2437	8.7966
1.1210	0.4833	9.2913
1.0636	-0.1274	8.1565
1.1934	1.0827	7.6474
2.0357	1.7174	6.7029
1.4644	-0.2291	7.7485
1.7731	0.4822	8.2450
1.2867	0.9805	9.5443
0.5683	0.4349	9.6155
0.9170	-0.2010	9.0855
0.5408	0.5503	9.1986
1.0128	0.4032	8.3138
0.6150	1.0774	9.2691
0.7029	1.7174	8.0949
0.5037	1.6732	8.6279
1.3561	1.1653	9.7651
0.7561	1.9352	9.8889
2.3186	0.6987	10.3609
1.1414	1.3298	11.4777
0.6102	0.9978	9.8841
0.9954	0.3673	9.7495
0.1603	0.9009	9.5826
0.1753	-0.1268	9.3505
0.5862	-0.2806	9.7070
0.9045	0.7585	10.1186
0.8770	0.8189	8.7152
0.9194	1.0935	9.1692
1.7228	0.0951	10.1623
1.0092	0.9787	10.0420
1.5003	0.5725	9.1579
0.9637	0.4056	10.0582
0.3864	0.1418	8.6560
0.5755	1.7318	8.7661
1.0558	0.4397	9.0089
0.0275	0.9021	9.4923
1.1228	1.4387	8.5340
0.1819	0.5300	8.5154
0.6790	1.3585	8.7511
0.8782	0.7705	9.2709
0.3296	1.0636	9.5413
1.3866	1.1994	10.3639
1.0780	1.3041	9.4480
1.8748	0.7543	8.8073
0.9021	1.1432	9.0436
0.6766	1.5906	8.7403
1.2197	0.1567	9.0161
1.4967	0.6161	10.2209
0.6688	-0.2698	10.0749
1.6205	1.1366	9.9170
0.9793	0.2046	10.1688
0.3308	1.2096	9.4331
1.4034	0.5509	9.6191
1.0708	0.6616	9.6777
1.0074	0.3667	9.3475
1.5015	0.4893	9.1752
0.7639	0.7160	10.0271
0.4522	0.4445	10.0127
0.8889	0.4241	10.1216
0.2512	-0.8704	9.7064
0.3332	1.1025	8.9581
0.4810	0.9936	8.7798
-0.2548	-0.2967	8.4891
1.2802	0.9338	8.2564
1.0684	0.7813	8.1439
1.4644	-0.9954	9.7429
1.1121	1.4680	9.4289
1.8419	2.5872	8.4969
0.6269	-0.0072	9.4384
0.5366	0.4911	8.6805
1.1557	1.6169	9.1549
0.3589	0.0096	7.9106
1.5278	0.6981	9.5659
0.4606	0.7460	8.6189
1.3735	0.9553	9.8362
0.8626	0.4325	10.7210
0.5426	1.7617	10.2598
1.5691	0.4959	9.5276
1.4512	1.1509	10.3447
1.2724	0.3882	9.5377
1.8796	0.8913	9.4049
1.3489	1.0235	10.6815
1.1599	-0.5749	10.0660
1.1767	-0.2136	10.4195
1.0786	0.5832	9.5994
0.1412	1.5787	8.6261
1.7497	0.0658	8.5268
0.1842	0.0191	9.7746
0.7645	0.7932	9.1226
1.3358	0.3440	10.2514
0.7723	-0.6855	8.8091
0.1609	1.4106	9.2135
1.4554	2.4149	8.8893
0.7047	-0.5043	9.3451
0.2417	0.9655	8.4065
2.1188	2.7296	7.9489
0.4798	-0.8034	7.7748
1.3364	-0.0048	8.6787
-0.0491	1.3119	8.4460
0.6760	0.7495	8.7098
0.7220	1.3358	9.4031
0.5731	0.7424	8.4454
1.4662	0.7430	9.6490
1.3938	0.2171	9.5455
1.4823	1.8012	10.0941
1.5565	0.2495	9.2973
0.7795	2.1218	10.2317
-0.2483	0.6060	9.6867
0.8488	0.0933	9.5946
1.3304	0.8477	9.3379
0.9918	0.7489	9.5970
1.7312	-0.2106	10.0366
1.6008	0.4768	10.6301
0.8518	1.3579	9.9009
1.5033	0.5599	9.9170
0.3936	0.0150	8.5848
1.7031	1.4608	8.9934
0.3972	0.3356	9.8620
2.2391	0.3069	10.4338
0.1472	-0.1280	9.8997
1.0409	1.7061	9.3350
0.4822	0.1065	10.1712
0.3015	0.8303	9.7034
0.9565	1.1180	9.2458
0.9332	0.0162	9.0496
0.8614	0.0299	9.5970
1.0481	0.5701	7.9316
1.2054	1.6247	10.4428
0.2512	0.1860	8.7338
0.9906	1.2347	8.6494
0.8016	-0.7047	9.6000
0.6203	0.5731	8.3838
2.0088	1.6552	8.4556
1.2443	0.4516	9.8386
0.6514	1.3208	9.7286
0.5892	0.9493	8.7679
0.4104	-0.2088	9.6059
1.1946	0.2841	8.5920
0.4361	0.4259	8.6075
1.7856	0.8931	9.1022
1.5272	0.5934	11.0255
0.2901	1.4847	9.7752
1.3765	1.0965	9.2117
1.0774	1.2873	10.0935
0.3559	0.1316	10.3992
1.3735	1.0140	9.1369
1.7061	0.3846	10.0157
0.3087	-0.3858	9.5114
0.6712	1.0570	10.1330
0.8925	0.2788	10.5355
0.2399	0.4146	9.8213
1.3143	0.5503	10.2209
0.7591	0.1316	9.4175
0.8907	0.8554	9.2482
1.8987	0.6425	8.5872
0.8776	1.1372	10.3980
0.5438	0.0808	9.4863
0.5671	1.0241	10.3788
1.2813	-0.7950	10.2376
-0.0927	1.3065	9.3170
1.3818	1.1162	8.3168
0.3212	-0.2094	9.0502
0.3595	1.5003	8.6697
0.4098	1.2760	8.6781
0.5486	0.1430	9.9828
-0.0443	0.9912	9.1651
1.4901	1.5278	8.5501
1.1462	-0.0227	8.3300
0.4116	0.3176	8.9832
1.5392	2.1033	7.5792
0.4672	0.9446	9.7728
0.9164	0.0419	9.1740
1.1342	1.7139	9.8859
0.8692	0.0550	8.4957
1.5230	0.6132	9.3104
0.3781	0.2417	8.8953
1.3956	1.4231	9.6119
1.3226	0.7202	10.5840
0.4636	1.0008	9.9308
1.1844	0.7591	8.9300
1.2981	0.8835	9.9978
1.1587	1.4901	9.8757
1.4991	0.3266	9.1770
1.9525	2.2995	10.5373
-0.1513	0.5653	10.3334
1.3280	-0.1089	10.0851
2.3204	0.7370	9.6801
0.7214	0.4498	9.7082
1.4889	0.2357	9.0227
0.8177	1.0205	10.5026
0.2572	1.0421	9.4181
1.4494	0.3033	9.7710
0.8662	-0.4768	9.0610
1.0696	1.2748	7.6893
1.4877	0.3595	8.4855
1.5176	-0.5270	9.1818
0.1101	1.7420	9.9505
1.8413	2.1535	9.4277
0.2734	-0.2710	10.1228
-0.0036	0.3081	8.4406
1.3543	2.0554	8.8355
0.4995	-0.9978	9.2787
1.1761	0.6766	9.6191
0.0072	1.8945	8.3180
0.7980	0.6825	9.0041
0.1603	0.9763	9.7531
1.1647	1.8813	8.4359
1.0223	0.4247	9.6586
0.5139	0.6036	8.8073
1.5194	0.6425	9.1292
0.4074	0.9386	9.0520
0.0909	0.6562	8.9377
0.5294	1.3436	7.6420
0.4588	-0.0538	8.5142
0.5246	1.0929	9.1022
0.7172	0.7017	9.1274
1.3621	-0.5432	10.4979
0.8088	1.6708	8.2983
0.7974	1.3956	8.1302
2.4036	0.7675	7.9944
1.1013	0.4008	9.6311
0.9703	2.1446	9.1507
1.1641	0.9553	10.4685
1.1133	0.3218	10.7629
0.7262	0.6927	9.8937
0.3194	-0.0526	8.8498
1.4692	0.0969	9.8703
-0.2088	0.6323	8.5621
1.1198	1.2365	9.2039
1.1629	2.0058	9.9631
0.3936	-0.0162	10.1030
1.8724	0.4187	9.6484
1.4829	0.7747	9.8309
1.4542	0.7095	9.9906
1.4345	0.1292	9.6687
0.8082	2.1481	9.7411
0.3649	-0.2315	9.2853
1.4620	-0.4564	10.9513
1.3986	-0.1358	9.3499
0.8494	0.5438	9.5946
1.7384	-0.2171	10.3603
0.5408	-0.1262	9.9589
0.7316	1.1222	9.2781
0.7561	0.5055	9.6059
0.7669	1.0325	8.5154
0.7597	0.7777	9.2530
1.4070	0.4241	10.2855
1.5200	0.1418	10.4883
0.4768	0.3153	10.7946
0.5533	1.0427	9.6729
1.0469	0.6616	10.3292
0.1095	0.1490	9.9523
1.1862	0.5228	10.2131
0.6897	0.5432	10.0648
0.5354	0.7125	10.2933
1.2126	0.3380	9.8566
1.2855	1.6600	9.9571
1.1994	0.4307	9.3128
1.7767	0.1687	9.6095
0.9787	0.7980	10.3316
0.5707	0.1836	10.1808
0.8321	-0.0580	10.7347
1.5093	0.1693	9.7256
1.0660	0.6191	10.0863
1.3830	0.0550	8.7828
1.1001	0.1777	10.1533
0.6873	1.2443	9.7351
0.9846	1.6080	9.8416
0.7986	-0.2249	9.3738
0.8488	1.0151	9.1938
1.5087	0.0820	9.2171
1.4548	0.6987	10.2071
0.5988	0.4540	9.2530
0.8806	0.9924	9.2709
0.0784	0.0933	10.1353
0.3601	0.0502	9.7214
1.5422	1.3220	10.4243
0.6138	-0.2835	10.0313
0.2931	1.3830	10.2490
0.9236	1.6271	10.0869
1.0798	1.1671	9.7627
0.6574	0.1143	9.6658
1.5793	0.1914	10.2233
1.0935	1.5715	10.2095
0.5605	-0.1980	10.4721
1.4070	-0.1029	10.7521
1.7707	1.1695	9.8566
0.7986	0.6018	9.4085
2.4036	-0.2046	9.5455
1.1814	1.1270	10.9908
1.2742	1.0355	9.5210
1.6762	0.3739	10.1078
0.7137	0.0598	9.1980
0.9493	1.0092	9.2889
1.4106	0.5767	9.5946
0.6610	1.3914	10.4745
1.0331	0.0251	10.0905
1.3160	0.7956	9.7998
1.3107	0.8638	10.2251
0.5803	0.4134	9.2225
1.1306	0.8596	11.0967
0.1101	0.7633	9.9403
0.2136	0.5174	9.1573
1.4201	0.5306	8.6775
0.4875	0.9458	9.2506
0.9583	0.7687	10.7796
1.3693	0.6215	9.2135
0.9069	0.5934	9.2285
0.8901	0.0778	8.5842
1.0630	0.8925	8.3019
1.6223	2.4508	9.0448
0.5509	0.8680	10.0181
1.6696	-0.4947	7.7844
1.0899	1.4967	9.6604
0.4026	-0.0461	7.7192
1.0804	0.5216	8.6165
0.4786	1.1336	8.7571
1.4076	0.6114	8.0889
1.5464	1.0451	8.6919
0.4965	1.1653	8.8719
0.9655	1.7611	9.1142
0.5671	0.9775	8.6099
0.3930	0.1029	9.6424
0.7370	0.8004	9.1615
0.4510	0.4816	9.5030
0.4786	0.3147	9.8327
1.0941	1.2604	9.5413
1.2837	-0.3206	9.0849
1.5188	1.3723	10.3447
0.8668	0.7059	9.3589
0.9368	1.0157	9.2291
-0.1352	1.1515	9.3780
0.6353	-0.4983	8.8313
0.8728	0.5007	10.0737
-0.0796	1.2742	8.6428
0.8022	-0.5037	8.9425
0.5862	0.1555	8.3533
0.5665	1.0774	8.2923
1.5260	1.3495	8.9593
0.9781	-0.1460	8.3108
0.7220	1.2646	9.0741
1.4943	1.5212	7.6989
1.2969	-0.1675	9.0161
0.8572	0.8656	9.9637
1.2155	0.5360	9.0131
0.8225	-0.1950	8.8163
-0.1836	1.0325	8.9126
1.3047	0.2788	8.5076
0.8704	0.8076	9.8147
0.3667	0.7382	9.8410
0.9248	1.4997	9.5240
0.7495	0.8662	9.9517
0.3721	0.6156	9.7256
1.3507	1.8742	9.8027
0.4618	0.0556	9.4642
0.7298	0.6502	10.2783
0.6425	0.3488	9.4977
0.8704	0.9793	9.5276
1.0229	0.7364	9.5964
0.9105	0.1789	9.7280
1.0935	1.1097	10.9597
1.0851	-0.0700	9.6532
1.7761	-0.1196	9.3140
1.7115	1.2407	10.1383
0.2859	0.8171	10.0516
1.9771	-0.6383	9.6167
0.6748	1.1898	10.1371
0.6012	-0.3338	9.4881
1.9286	0.5258	9.8446
1.0756	0.7292	9.4402
1.0941	0.9296	10.0402
1.7623	1.0738	10.0432
0.8698	0.7310	10.2388
0.7095	1.3029	10.5062
0.4738	1.1599	9.4546
0.5378	-0.5904	10.5924
1.0804	1.5517	9.9009
0.6796	0.6736	10.0815
0.4397	0.6496	9.9876
0.8291	0.0419	9.2620
0.9182	0.4487	8.7966
0.9679	0.8165	10.2568
1.1695	0.9296	8.9509
1.6026	1.1958	9.0867
0.7771	0.7394	9.6741
1.3980	-0.7717	8.7146
0.5970	0.8148	10.5308
-0.3135	0.4642	8.1529
0.3870	0.2363	8.9934
0.4947	-0.5456	9.9828
0.1669	-0.5480	9.3379
1.4375	1.8562	9.6484
0.7890	-0.0179	8.9521
0.9589	1.5960	9.6029
1.2508	1.1910	9.6131
1.5093	-0.3577	9.1202
0.5665	1.1145	10.3070
1.0193	1.1366	9.3702
0.8357	-0.3320	9.2829
0.7723	0.7017	10.1688
0.7681	-0.3284	9.9607
0.7854	1.0445	10.5948
0.3368	-0.2883	10.1790
1.0821	-0.2788	9.8697
1.5446	1.3113	10.7503
0.2154	0.5557	10.3154
1.9442	0.8351	10.4841
0.9517	1.9944	9.1316
0.8112	-0.0526	10.1928
0.8441	1.9460	10.8998
-0.1914	1.4315	9.1692
0.5348	-0.5886	9.8913
1.5924	0.9631	9.7627
-0.0221	0.6873	9.7519
0.9517	1.1330	9.6197
1.0696	0.4235	8.5100
1.1737	-0.2871	8.7744
1.9202	2.0309	9.0753
1.3053	0.9571	8.0889
0.6550	0.8231	8.9449
0.9284	0.2435	7.1874
0.9290	-0.0909	7.7599
0.9984	1.5344	9.4360
-0.0377	0.6736	8.7068
0.9164	0.2608	9.1567
0.7693	0.5910	9.1848
0.3212	0.5474	8.7415
0.6096	1.0277	9.3607
0.3057	1.6941	8.2678
1.1180	0.5288	8.9461
0.9511	0.8662	9.9828
0.6479	0.4277	9.9678
1.6469	1.7910	9.4271
0.7603	0.3751	8.8809
0.3559	0.1543	9.4253
1.3334	0.9416	9.3948
-0.0646	0.0209	9.2823
0.5635	-0.0221	9.8273
0.8405	1.0630	9.7992
0.9589	-0.2716	9.1579
0.8381	1.2885	10.4865
1.5972	0.3930	9.0831
1.0457	1.3364	9.9936
1.0786	1.0768	9.5497
1.4291	-0.2028	10.5062
1.2096	1.8173	10.2771
0.0837	1.0756	9.0885
1.5655	-1.2712	10.4350
1.2066	1.8000	9.1609
0.1406	1.0140	9.0544
1.6744	0.0371	10.5696
1.5452	0.3655	8.4472
0.6138	0.2189	9.4307
2.1667	0.9033	9.9391
0.3212	0.6784	10.2000
1.0469	0.4869	9.7531
1.6289	1.0271	9.2482
0.9805	0.5545	10.0055
0.7633	1.3842	10.4895
0.6604	0.9846	8.7397
0.6580	-0.3499	10.3525
0.8692	1.6917	10.5942
0.5749	0.8614	8.7218
0.8363	0.0012	10.9429
0.6825	-0.8106	8.8067
0.5880	0.8387	8.1906
1.7252	0.7125	9.3164
0.4169	0.7603	8.5268
1.4309	0.7388	9.4791
1.0528	1.0463	9.4504
0.5486	-0.3194	8.4969
1.4022	0.9793	10.0510
-0.4702	1.7659	8.2014
0.9751	-0.9703	9.4725
1.1904	-0.6670	10.5661
-0.4827	1.3310	9.1812
1.4399	-0.3314	10.0552
1.0738	-0.5623	9.4480
0.7077	1.1629	9.3547
1.7916	0.4528	10.4524
0.9164	-0.9111	8.5603
0.3482	0.6012	9.1196
2.0488	1.3962	8.1547
0.0604	-0.2088	8.8462
0.6580	0.9147	9.1926
1.2951	0.5145	8.5758
1.2849	0.2518	9.5054
0.7023	0.8333	10.1377
1.3160	1.3406	9.7202
1.0594	0.3320	10.0851
0.8668	0.8602	9.2847
0.9846	0.8500	9.8440
0.8040	2.2630	10.5846
0.5127	-0.5856	9.7124
1.2299	-0.0927	10.0408
1.8796	0.7705	9.7118
-0.5832	0.5354	9.2374
1.2640	1.5649	9.0083
0.9075	1.8443	8.6500
0.9158	-1.4536	9.1046
1.6774	1.0953	9.8482
1.6014	1.6588	9.7938
1.2431	-0.7196	8.8247
1.7073	0.6634	9.2757
0.5497	0.5755	9.5916
0.7669	0.3278	8.6967
0.4175	0.6802	8.7194
0.7280	0.3960	9.4061
0.9176	0.4247	10.1449
0.8441	0.8823	8.0016
1.2700	1.7940	8.6554
1.4429	0.7178	9.4743
0.9254	1.0863	8.2151
1.0528	1.9980	10.5415
0.9966	1.2359	8.5788
1.1174	-0.0323	8.9359
0.4744	1.5787	9.4456
0.7998	1.2760	7.9806
0.9147	0.4128	10.0785
0.3984	1.0457	8.5537
1.0259	-0.2046	8.8390
1.0146	0.5342	10.3800
-0.2548	1.6289	8.6620
1.6480	1.3418	8.2043
0.9948	0.0413	9.5892
0.0921	1.5146	9.8093
1.3436	2.0512	9.6400
0.8500	-0.0873	10.0540
0.5575	-1.0786	9.3254
1.7342	2.9288	9.2195
0.5868	-0.1884	9.8446
0.7256	0.5168	10.4416
2.3264	1.0971	9.9930
0.7322	-0.4768	10.4859
0.9206	0.7131	10.4673
0.7310	0.9422	10.2131
0.8650	0.3170	9.4259
0.4911	-0.1382	10.1587
0.6030	-0.0592	8.9102
0.9721	1.5643	9.5144
0.9296	-0.0837	9.0849
1.4064	-0.6927	10.0905
1.0624	2.7607	10.5008
0.5533	-0.2225	9.5856
1.5422	-0.5898	10.5457
1.6756	1.6857	10.4889
0.4247	0.1364	9.4133
1.4159	0.0251	10.3914
0.7848	1.5978	8.9371
0.1340	0.5025	8.9958
2.0171	-0.0520	9.6520
0.5007	0.8638	10.0600
1.2502	-0.0556	9.8093
0.9284	1.4811	10.1090
0.8584	1.2413	9.8051
0.4205	0.3703	9.5425
1.5093	0.6748	8.7015
0.0365	0.3362	10.3298
1.4225	0.4696	10.0061
1.1515	0.7202	9.6999
1.6116	0.5874	10.7312
0.7250	-0.0281	9.8099
1.4076	1.3340	9.8703
1.0594	-0.2285	10.3914
0.8483	0.6030	10.0648
1.2778	-0.1412	9.6795
1.3585	1.0816	10.1186
0.7765	-0.0724	9.4301
0.6879	1.0989	9.3846
1.4165	1.2556	10.3866
-0.0879	1.2269	9.7118
1.3143	0.1244	8.9294
1.1402	1.4530	9.3583
0.2506	0.2094	9.2099
1.4447	1.3950	9.3792
1.0953	0.7980	9.3086
0.4594	0.4271	8.3772
1.0965	1.4566	9.4827
0.5133	1.0229	9.5437
1.1192	-0.2279	8.3814
1.2520	1.3669	9.0305
0.4696	1.1330	8.8343
1.1551	0.3864	10.4446
1.4333	0.9978	8.9557
1.2102	0.7220	9.6969
0.9535	0.3272	10.1473
0.9398	-0.2698	9.1058
0.5964	0.6646	9.2087
0.8722	0.5934	8.9527
1.4841	0.4552	8.6584
0.8572	0.8961	9.4995
1.5595	0.4469	9.5527
1.3190	1.1055	9.1417
1.1844	1.0732	9.7890
0.7747	1.1156	9.3236
1.1049	1.4381	9.1166
0.1262	0.5115	9.2518
1.5051	1.1749	8.1595
0.3224	0.1789	8.4012
1.0427	0.7292	9.6598
0.6227	0.9547	9.0245
0.9368	0.2806	9.1477
0.0293	1.0959	9.7011
0.7376	0.9679	8.6476
0.6873	-0.5677	9.5401
0.2794	1.5123	9.3385
1.1474	0.7388	7.8957
0.9637	0.6078	9.8973
0.3888	1.1515	8.8486
0.7005	1.6433	8.7080
0.9326	0.1908	9.7076
0.4026	1.2185	9.0897
1.5565	0.4612	9.3032
1.1025	-0.5168	9.8817
0.5438	1.2694	9.0436
1.2598	0.2901	9.7471
0.8931	-0.1920	9.2201
0.9410	0.2782	9.2578
0.8800	0.2441	8.9605
1.2676	0.6532	9.4899
0.4481	1.8945	8.3808
1.7456	0.2979	9.0089
1.2784	2.2905	9.1812
-0.1214	2.4532	8.9635
1.1659	0.1537	8.8953
0.6981	1.3998	9.8955
-0.4331	0.8536	9.0592
1.3047	0.1711	9.5802
1.1803	-0.4187	10.4069
-0.2931	0.5342	9.8476
1.9591	-0.0688	8.4735
0.8913	-0.3464	10.0905
0.3787	0.5276	10.0372
1.2628	1.7749	9.0759
1.8072	0.6993	10.1665
0.9446	0.6849	9.6520
1.9364	1.0618	9.2626
0.9870	0.2794	9.1483
0.8973	-0.0036	9.2548
0.7017	1.2586	9.2410
0.4211	0.4947	9.5790
0.5486	-0.3631	9.1878
1.2060	0.9793	9.8733
0.3326	0.0969	9.6221
0.8136	0.7172	9.2105
1.5667	1.6947	8.7601
0.4540	2.0393	9.2955
1.5583	-0.6293	9.0801
0.5503	1.9777	9.6604
1.0289	1.1121	8.5214
1.3328	0.7801	8.5633
1.3160	-0.0933	9.8560
0.0604	1.5793	8.8283
0.8417	-0.1346	8.0919
0.6604	-0.2034	8.1876
-0.4367	1.4285	9.1082
1.2574	-0.6861	8.7858
0.7077	0.5073	9.0801
-0.1101	1.1204	8.5986
1.7468	0.1184	7.8759
0.6496	0.5336	9.3673
-0.3960	2.4861	7.9872
1.8114	1.3196	8.7798
1.7575	-0.2794	9.6849
-0.5061	0.7041	9.1375
1.4345	0.9141	9.1531
0.6538	-0.3009	9.3463
-0.8159	0.9164	8.6045
1.7324	-0.7801	9.9948
1.2640	-0.7735	9.2057
-0.3930	1.2586	8.8450
1.2999	0.0179	10.0905
0.9482	0.8285	8.6123
0.0048	0.8177	8.4556
1.2293	1.3944	10.5284
1.6367	0.6873	8.1972
0.3057	0.5127	9.3068
2.0231	0.9176	9.9840
0.7286	1.3077	7.7354
0.6036	1.5254	7.4398
2.0584	-0.1711	9.2895
1.3836	0.7149	10.1898
0.3799	-0.2094	10.6953
1.6122	0.7693	10.5403
0.1621	1.1198	9.5976
0.7699	-0.0150	9.4869
1.1976	0.3697	9.9140
0.8656	1.2796	9.1764
0.9434	0.1830	10.1515
1.8395	1.2843	10.0259
0.5898	0.9649	10.3710
0.9607	1.4357	8.6644
1.4231	0.0203	8.7679
0.6012	0.7998	10.2843
0.9691	0.5587	10.0779
1.2042	1.2269	9.9595
0.0778	-0.0963	9.8075
0.5515	1.1593	8.4137
1.5984	0.0179	9.3038
-0.0682	0.3769	9.6155
1.4656	1.6433	10.0995
1.3436	1.0510	8.7732
0.4768	-0.1460	9.4881
1.2371	1.9424	10.5002
1.6504	0.4857	9.2249
0.3535	-0.1615	9.7896
1.6965	1.2138	10.2921
0.4319	0.6604	10.7437
-0.2417	0.0024	9.5389
0.8453	0.3494	9.9385
0.1615	0.4307	9.2183
0.4822	-0.5815	9.6382
1.4273	0.6066	10.4183
0.5761	1.4315	9.6191
0.8722	0.7340	9.6652
1.8449	0.6993	10.4602
0.3147	1.2724	9.3182
0.6102	0.2542	10.4793
2.3043	-0.2136	9.9708
0.7974	1.5146	10.7288
0.6251	-0.3362	9.5694
1.2197	0.2644	10.5092
0.4457	0.3882	9.8374
0.1525	-0.4038	10.2921
2.8074	0.3105	10.3525
1.0403	1.3525	10.2681
1.2538	0.2584	11.1098
1.4387	1.6935	8.6057
1.0044	1.7581	8.9994
0.8602	0.0556	10.3411
1.1557	0.6622	9.3074
0.6419	0.3607	10.0307
1.0720	1.0887	9.4444
0.3428	1.1372	8.0847
-0.1250	0.7376	8.7547
1.2843	0.1460	9.2614
0.7268	0.9631	9.1214
0.6281	-0.2770	9.4055
1.2891	2.6076	9.7423
1.1653	0.6090	7.7222
0.4804	0.6562	9.4307
2.1709	-0.3601	10.0917
0.1711	0.4642	8.7702
0.6485	0.7065	9.6993
1.5063	-0.1274	9.0574
0.0413	0.7011	9.3367
-0.1430	1.5141	9.1633
1.7085	-0.5928	9.3062
0.9129	0.9721	9.5718
0.9661	2.0447	10.3669
1.4327	-0.0718	10.4638
1.1282	0.4714	9.2303
0.5892	2.0967	9.5808
1.6911	-0.7101	8.4795
0.8853	0.5192	10.0241
0.8698	1.2203	10.2807
1.5470	0.0209	8.7601
1.1306	1.7306	9.6269
0.9464	0.4217	9.8440
1.1378	0.7202	8.8905
0.8961	-0.1747	9.5946
1.2353	1.3035	9.4612
0.8291	0.8608	9.1274
0.1077	0.0658	8.3354
0.4367	1.2796	9.7046
0.6437	0.9290	7.6558
0.0323	0.2064	8.6889
1.8173	0.8949	8.3856
0.2177	1.4883	8.5920
0.5103	1.7988	7.4213
1.3986	0.4833	7.1001
0.2602	1.3968	7.6731
0.4798	0.5701	8.0105
2.0429	0.4570	7.9322
0.5527	1.2090	8.6039
1.2191	-0.0437	10.0055
1.7234	0.1101	9.1453
0.3745	1.1874	9.0077
1.1390	0.0048	8.9048
0.8471	0.0915	9.8566
0.9224	0.6203	10.1204
1.3101	-0.1573	10.3926
0.8046	0.3470	8.7906
0.7807	1.5727	8.4933
1.0140	-1.0881	9.0688
1.4147	-0.0156	7.9423
0.9930	1.4058	8.8552
1.1444	0.6754	9.5934
1.0582	-0.0030	8.6560
1.3591	0.5826	9.0897
0.7322	0.0826	8.5244
0.4373	0.5204	7.6570
2.1296	2.3330	8.3802
1.4560	-0.5402	10.2221
0.3936	0.5713	8.6410
1.6720	2.2552	9.9738
1.0762	1.0642	8.8360
1.2209	-0.7543	9.1633
1.0175	1.4285	9.7142
1.1641	1.2353	7.9998
0.9404	0.2046	7.5762
0.4457	1.3172	6.7782
0.0311	0.9966	7.0050
0.6963	0.1346	6.4097
0.6371	1.7186	8.5232
0.2973	1.0038	8.6829
1.7192	1.8682	7.9573
1.2084	1.5577	9.7286
0.4762	1.1228	9.5365
1.1025	1.1025	10.0307
1.3256	0.4104	9.9607
0.5001	0.1436	9.9020
0.8405	0.7143	9.8153
1.0349	-0.0443	9.2674
0.4295	1.2407	7.9980
0.9984	1.1414	9.3361
1.3824	0.0269	9.2691
0.5797	1.3017	9.2404
1.9274	1.7970	9.5479
1.8389	0.2489	8.9126
1.2915	2.5011	8.5621
1.2706	1.6463	8.8462
1.3884	-0.2483	8.8008
0.3553	0.8913	9.4097
0.8997	0.8441	9.5126
0.6108	-0.1687	9.2213
0.6473	0.1274	9.9708
0.2028	1.4853	9.6705
0.7005	0.6000	9.7471
0.7693	0.9422	9.5587
0.8028	0.8524	10.3806
1.8813	0.0359	8.9665
1.3669	1.7109	10.0588
1.0810	0.3123	9.8727
1.5374	0.2207	10.1258
0.8764	1.8209	9.2243
1.2819	-0.6975	8.8552
1.0469	-0.7316	9.5318
1.3902	1.3370	9.8350
1.1210	0.1968	9.9415
0.0927	0.1322	9.3302
0.8788	2.4066	8.7206
1.0564	0.1986	8.6428
1.3483	-0.7543	9.7531
0.7029	2.4413	8.2468
2.2756	1.4704	6.8028
0.7962	1.0780	9.4127
0.6036	1.6014	8.9922
1.2945	-0.2512	8.9066
1.3328	0.1220	10.2759
-0.0060	0.3691	10.4416
1.0744	0.5653	9.4965
0.6197	0.1418	9.9182
0.5713	1.2281	10.4949
1.2825	-0.1956	8.7625
1.3394	0.1268	10.1036
0.8219	1.6163	9.9954
0.8931	1.5284	8.2343
1.6439	0.9476	9.0490
1.6504	-0.0598	9.2506
0.7962	1.1282	9.7322
0.9320	1.6379	9.1328
1.9699	-0.1304	9.2811
0.1860	1.0469	10.8101
-0.0784	0.7316	10.0348
1.5763	-0.5486	9.9744
-0.4361	1.4405	9.0209
-0.1388	0.7352	8.6428
2.2163	-0.1190	9.3613
0.3571	-0.2955	8.6841
0.6371	1.6463	7.3220
3.0281	0.1633	8.2444
0.7639	1.0445	8.6925
0.6963	1.1731	9.0508
2.5071	-0.5976	8.4053
0.8698	0.9039	9.8261
1.4046	0.3428	8.9952
1.5739	-0.2112	6.1776
0.3039	0.5994	7.4566
0.1196	0.2943	9.0239
0.6820	0.0425	8.8462
-0.5958	0.8524	9.0729
1.5111	-0.1980	8.8809
0.8578	0.4475	8.4765
0.3852	1.8317	8.0410
2.0907	1.0774	9.3738
0.2447	0.5013	10.6139
0.3918	0.7328	7.2753
2.8301	0.9003	8.8223
-0.0036	-0.1214	9.4851
0.7591	0.8387	10.2053
1.4710	-0.3715	9.8703
0.8058	-1.2191	7.3806
0.2506	1.6486	7.9728
1.6947	0.7777	8.0279
0.9960	0.8674	6.0395
1.1850	1.4189	8.5058
1.1988	1.8425	7.6600
1.1156	2.2827	7.9699
1.4291	1.0409	9.0825
0.7208	0.4989	7.2903
1.2562	0.9141	7.7431
1.0917	1.0163	9.2895
0.0580	0.8243	8.6961
0.7962	0.6634	8.2552
0.9464	0.1639	7.8377
-0.7824	0.2219	8.3371
0.6921	0.8925	8.5250
1.4118	0.7998	8.1254
0.3703	0.8441	8.2390
1.8664	0.9649	8.7673
1.3489	1.5619	8.2983
0.0389	0.8034	9.2045
1.2646	1.1952	9.2757
2.2104	-0.5145	9.5018
1.1994	1.1587	9.8991
1.2742	0.1866	10.8735
1.4082	0.4062	10.3184
0.3320	0.7160	9.1040
0.8363	0.7771	9.9535
1.9358	-0.3978	7.8095
1.4022	0.8572	9.8093
1.8730	1.4112	9.9984
0.9954	1.4782	8.2079
0.5707	1.6092	8.5280
0.7364	0.8136	8.9988
0.7478	1.0582	8.9078
0.6275	0.3356	9.5150
1.4082	0.5043	9.1483
1.1384	0.9129	9.7088
-0.1896	0.3817	9.3409
0.7005	0.5958	9.7657
1.0684	-0.2835	8.9527
0.0144	0.6401	9.1681
1.9244	0.4199	10.2981
1.6241	0.8937	9.8063
0.7232	1.3364	9.6012
1.4405	0.3960	10.0689
0.9218	1.0582	10.1078
0.0299	0.3858	9.3338
2.1027	-0.3290	10.5332
0.9123	0.8267	10.0839
0.6778	0.1813	10.3172
1.1689	0.5503	10.2693
0.8530	1.6343	8.9288
1.0911	-0.6293	9.6329
1.2813	0.6556	10.2388
1.3729	1.2730	8.9473
1.3208	1.4859	8.7804
1.1844	-0.1747	9.0676
-0.1250	1.1115	9.5120
1.2556	1.0050	7.2897
0.4552	-0.1777	8.5058
0.3410	0.3673	8.7308
1.2580	1.0080	9.3972
0.5809	0.0748	9.4773
0.1125	1.0504	7.8047
1.4159	1.4429	8.3964
0.9529	-0.3505	9.9409
0.5204	1.2730	9.6167
2.1272	0.8752	9.9487
1.8634	0.2572	9.7519
0.9553	1.3125	9.2177
1.5972	0.6921	9.8237
1.1898	-0.0969	10.4033
0.4959	0.5862	10.1521
1.1725	-0.2800	10.5308
0.3673	0.2548	10.1653
-0.3613	1.0756	9.0484
1.3298	0.6945	10.0929
0.0425	-0.0395	10.6432
0.1884	1.9908	8.7367
1.2676	1.8275	8.8845
1.4339	0.9595	9.0227
1.5248	1.5093	9.2159
1.7204	1.5475	9.5359
0.6873	0.6706	8.5758
1.2718	0.2752	8.8725
1.4590	-0.1304	8.9838
0.6036	0.3374	9.5318
0.6933	-0.3948	8.2193
0.6921	-0.5312	9.4731
0.2022	0.4816	8.8660
0.8183	0.9721	7.2101
1.3741	0.8357	10.0606
1.3699	0.6742	8.3808
1.2855	1.1444	8.3868
1.3932	1.0331	9.3499
0.3254	1.0325	8.1104
0.8291	0.5898	9.6693
1.2425	0.0425	9.9308
0.3200	0.5468	9.7872
0.6108	-0.1310	9.7567
1.1485	0.3960	9.0197
-0.1819	0.7262	9.7028
0.2919	0.2483	9.6233
2.0327	1.1539	10.2221
0.7017	-0.1645	10.2382
1.8000	0.3021	9.9206
1.4405	1.9328	9.2039
1.0038	1.0463	9.8428
0.8243	-0.3422	9.6879
1.5135	1.5446	9.7112
1.1222	0.6473	9.3822
1.4363	-0.0951	10.1001
1.2496	1.1204	10.0073
0.2943	0.8710	9.4875
1.1103	-0.3559	9.1639
1.4614	1.3274	9.5018
0.7926	0.0861	8.6398
1.5709	0.3188	9.0173
1.5577	2.0979	8.3994
0.9649	-0.9129	8.1433
1.6534	-0.2417	9.4223
1.0810	1.7892	8.4012
1.1055	-0.7035	8.9671
1.9107	-0.3697	9.9846
1.4147	2.3276	9.2997
0.8309	0.2542	9.9026
1.3280	-0.0963	9.2416
1.0295	0.8447	10.7102
0.6221	-0.1430	10.3872
1.2215	0.5773	8.3419
1.4656	2.7745	9.0616
0.8207	-0.4792	9.7561
2.2044	1.5942	9.0077
1.3310	2.5663	9.9003
0.9380	-0.3954	9.7543
1.4100	-0.9093	9.4707
0.8925	1.8945	10.0809
0.0628	-0.3308	9.4372
0.9894	-0.4092	9.3667
0.8028	2.1924	9.4947
0.7370	-0.5085	9.5545
1.6786	-1.0092	9.6556
0.9057	3.0508	7.9052
0.9709	1.6863	6.9451
1.2580	0.4869	8.7397
2.2187	2.5974	7.6073
1.2305	0.8782	8.1744
1.4548	-0.5928	9.9373
1.1916	0.0520	9.3254
1.1204	2.1170	9.4319
-0.2584	-0.8477	9.2506
-0.1214	0.4187	10.4398
1.4297	0.5085	8.8600
0.6897	-0.0987	9.4929
0.9464	1.8269	9.6999
2.9420	1.1288	8.7326
1.0062	0.2740	9.4654
0.5665	1.7713	9.6299
1.1468	-0.2614	9.4187
1.0540	-0.7489	10.1557
-0.0670	1.0367	10.0815
0.8423	1.9579	9.2177
0.4887	-0.1723	9.2063
0.0006	1.1318	9.8010
1.0923	1.1150	8.9958
0.5252	0.3284	10.0881
1.0804	1.7085	10.3998
2.0411	1.1677	10.2203
1.1647	1.3842	9.9080
0.4935	1.6259	9.8602
2.1332	0.3057	9.3661
1.9519	-0.1053	9.9810
0.9380	0.2423	9.9996
0.7489	0.7824	8.9228
0.6772	1.2287	7.8191
0.0897	-0.0921	8.3718
1.3298	-0.0479	8.8498
0.9344	1.3280	9.5682
0.9314	0.4152	10.9746
2.0518	0.5743	10.1252
0.7017	0.7801	9.8219
0.9027	1.7838	8.0231
2.1601	-0.8596	8.6560
0.5204	0.8339	9.6999
0.9428	1.5458	8.4861
1.4554	0.2542	8.5740
0.8835	1.2185	8.7050
0.3033	0.7639	9.2267
0.5276	-0.4558	9.0849
0.5683	0.5898	8.6656
1.0881	0.0808	8.9683
0.8985	1.0044	9.7686
1.1749	0.6921	8.3677
1.5464	1.0175	8.8145
0.7968	0.4319	9.8943
0.7675	1.3759	8.5974
1.3579	1.2748	9.0053
1.0229	0.0156	8.8384
0.6760	0.9828	8.7421
1.0283	0.6413	8.4388
0.4839	-0.0826	8.3796
0.0156	0.6227	7.9944
0.5731	0.5701	7.7802
0.9039	0.2949	8.0937
0.5246	0.9781	8.0578
0.1735	1.5882	7.8544
0.8405	1.2293	8.2313
0.9051	1.6839	8.8761
1.7025	1.5631	9.1573
1.2927	0.7537	9.7244
1.4530	1.1480	8.9354
0.1095	0.9242	9.0364
0.9152	-0.3440	8.3509
0.1693	0.6646	8.8366
0.3667	0.7807	8.6279
0.3063	0.2812	7.8616
1.2102	0.4092	8.7691
0.7274	1.1719	8.9635
0.9697	0.9870	8.6895
0.8572	1.8185	9.5276
1.2030	1.1725	8.6991
1.2855	0.8937	9.2374
1.3489	0.4666	10.4440
1.2580	1.4465	9.1549
0.1735	0.2716	9.4672
0.5330	0.8100	9.7220
1.6480	0.4283	8.9635
0.3625	0.5797	10.0360
1.2048	0.9260	10.6360
1.7970	0.8070	9.8602
0.4612	0.9254	9.1980
1.7294	1.0265	9.6323
1.6421	-0.5605	9.5120
1.2251	0.9224	10.4566
1.3645	1.6014	10.1461
1.7485	0.3105	9.5084
0.9464	-0.0305	10.0097
0.3129	0.1801	9.3918
1.3412	-0.0772	9.4337
0.8991	0.2255	9.6143
0.8297	1.2999	8.2773
1.3860	-0.0646	9.2913
0.7657	1.5864	8.1882
0.1178	1.3908	8.3431
2.0135	0.6712	9.5952
1.1079	1.7503	10.0791
-0.0646	1.3424	9.0317
2.6393	0.3147	9.3990
0.7484	1.1402	10.1066
-1.0337	0.5581	8.1864
1.3460	0.0461	9.3930
0.4181	1.0869	9.2727
-0.0622	-0.1017	8.9174
2.1326	-0.2859	10.4596
1.1252	1.4058	9.1920
-0.6772	0.9254	8.6452
1.8855	0.3936	10.1832
1.7479	1.5679	8.3665
-0.1496	1.6044	9.2715
3.5013	0.2782	10.4889
2.0088	1.4471	9.2488
-0.5192	2.4514	8.5920
2.3773	-0.3009	10.2083
0.2847	0.9051	10.0737
-0.6012	0.1591	9.4259
2.5848	0.0449	9.9649
0.9984	-0.1460	9.1920
-0.1137	0.5462	8.5693
1.9280	1.2347	8.5046
1.6528	0.5336	8.5052
1.0367	1.2718	8.8438
2.1487	0.8453	9.9302
1.8179	1.4494	9.3110
0.3517	0.6939	9.6646
1.6516	0.5934	9.5036
1.1611	0.3912	9.6646
0.0568	0.3362	9.7692
1.4040	0.5408	10.7712
0.9344	0.4175	9.6957
-0.3176	0.7537	9.6801
1.0439	0.9380	9.8751
0.7723	0.4068	9.2979
1.2203	0.8309	9.9894
2.1069	1.3501	10.0737
1.3107	0.3763	9.5443
0.6431	0.5797	9.2889
0.8692	0.1328	9.9535
1.4309	-0.0371	8.9557
-0.1825	0.2201	9.5892
1.1168	0.5940	9.8327
0.9368	0.0497	9.9332
0.1394	0.6353	10.1353
1.1964	0.8584	10.2580
0.9673	0.5916	9.0951
0.3033	1.4465	9.7477
1.9627	0.7466	10.7120
1.2963	1.6385	9.7728
-0.1352	1.5206	8.4161
0.8668	0.2997	9.4642
0.0951	0.0742	9.6544
-0.1119	0.3003	9.7112
1.3854	-0.1872	10.4356
1.1450	-0.6987	10.3298
-0.5055	-0.0132	9.5922
1.0217	0.7125	9.2662
2.0004	0.1842	9.2141
0.4762	0.9571	9.8356
1.6151	0.5611	9.8973
1.5176	0.8907	9.9326
1.3615	0.2662	9.6125
0.4750	-1.0714	10.5696
0.4935	0.7908	10.3944
0.8506	0.9099	9.2464
0.5689	0.1208	9.9080
1.5775	-0.0646	9.6622
0.3164	1.1360	11.2277
0.0754	0.5372	10.1515
0.7974	0.4630	8.6010
1.0062	1.2766	9.8171
1.5039	-0.1047	10.2891
2.2050	0.2895	10.4321
0.9458	1.3041	10.1258
1.8072	-0.1549	10.5152
0.9607	-0.0526	9.3834
-0.0221	0.2195	9.4121
0.7705	-0.0837	10.1970
1.3232	-0.2698	9.8799
0.8369	-0.0843	10.0049
0.9446	0.3159	9.8548
1.2652	0.5438	9.2781
0.0832	-0.2584	10.1934
0.6431	0.8154	10.2335
0.8668	0.4469	9.4474
0.1723	0.2106	9.6723
0.8626	0.8124	8.8390
0.8309	1.6887	9.2159
0.1729	-0.2411	9.1034
1.0714	0.1238	9.3056
1.4823	1.1689	9.9236
-0.5073	0.2046	9.1411
0.7735	-0.6102	9.4779
0.9828	0.8273	8.6590
-0.1651	1.3442	7.1802
1.5158	-0.1304	8.8713
2.1481	1.3992	9.3152
1.0989	1.1007	9.3415
2.3198	0.4086	10.1665
0.7029	1.1868	10.1587
0.8088	0.2997	9.5383
1.8772	-0.1220	11.2971
-0.0305	0.1501	10.5559
0.8255	-0.0156	10.3405
1.6911	-0.3446	10.0265
0.8572	0.8303	8.1523
-0.4827	0.8871	8.0464
1.4471	-0.5007	9.0622
0.9643	1.3226	7.1736
0.8638	1.5673	6.1142
1.8078	0.1944	7.8257
1.1623	1.0720	7.8347
0.3338	2.4114	7.0761
1.1318	-0.3452	8.5693
0.3595	1.5828	8.1278
0.5180	0.3356	7.5374
1.0050	-1.1940	9.8273
1.3226	0.3081	9.3361
0.6185	0.5444	6.3051
1.2072	0.1896	8.4083
1.2479	0.6568	7.5164
0.4618	1.1719	8.7559
2.0626	0.6054	9.7639
1.8227	0.8973	8.7451
0.1513	1.5816	9.5282
1.6768	0.1908	9.7920
0.6628	-0.8937	10.2173
-0.4863	1.4028	8.8055
1.9083	-0.0036	9.9272
0.7669	-0.9392	9.6370
-0.6951	1.1677	8.6500
1.0277	1.1174	9.1513
0.6658	0.5067	8.4353
0.4708	0.2255	8.6225
1.5182	0.5378	10.3028
1.3394	0.5049	8.6434
0.9093	1.4794	7.5003
1.4034	0.6544	9.0143
0.9320	0.8213	9.7579
1.0002	0.1669	9.3194
1.0486	0.3380	9.6849
0.6963	0.5139	9.9158
0.7938	0.0024	9.5312
0.1848	1.4841	9.1495
0.0401	0.2297	7.8490
0.9063	1.4100	9.8656
1.1689	0.0078	9.1274
1.2819	1.5882	8.7481
1.7581	1.5146	10.0492
1.1306	-0.2112	10.1036
0.4122	0.4600	10.1234
0.0562	1.2837	10.3740
1.4841	-0.0867	9.7375
0.3482	-0.1490	10.2831
1.8897	0.5731	9.4211
0.6820	0.5821	9.6616
1.2413	0.2321	9.7686
0.2249	1.7952	9.7334
1.2066	0.5904	9.5928
1.5051	0.3559	10.5158
1.2502	0.8937	10.2484
0.7244	1.2479	9.5718
1.0905	-0.2734	9.7884
0.8154	1.2790	7.3824
-0.0508	0.9069	7.6390
1.0151	-0.5324	9.8572
0.2483	1.5852	7.7916
0.9787	1.5697	8.5764
1.5649	0.5581	9.5958
0.3188	0.9811	9.4761
0.9470	1.5099	9.2404
2.1655	-0.1675	9.4343
1.3352	-0.9649	8.9994
1.2066	2.5262	10.1174
1.4680	0.2207	8.7032
0.8411	-0.8393	9.1603
0.9152	2.2415	9.9098
0.1914	2.5585	7.1126
0.8261	-0.4600	9.2578
0.5952	0.8237	10.0713
-0.0191	0.9703	9.6000
0.9595	-0.3499	10.5062
0.7131	-0.6568	9.2949
-0.8465	1.5751	8.3838
1.2114	1.2347	8.4257
1.2514	1.2042	8.5615
2.0931	0.3434	9.9840
1.8580	2.1607	8.7302
1.2072	0.6485	9.5706
1.2245	0.6401	8.4957
0.5575	1.8209	6.2859
0.4923	-0.2351	7.4422
0.8279	-1.0648	8.8295
0.6849	0.9045	8.3072
0.2722	1.5643	8.6171
1.0235	0.7376	9.4372
0.3697	0.7005	9.6765
0.6054	-0.1083	9.7974
1.2736	0.3176	9.7310
1.1252	0.4116	9.9379
1.4949	2.5615	8.5860
0.9757	1.6965	8.7607
0.7585	0.1705	8.8271
1.2825	0.8674	10.5002
0.7585	1.2909	9.3463
0.7878	-0.1095	10.5397
1.5589	-0.9721	9.6341
-0.4068	1.4632	9.4049
0.9493	1.6833	8.9982
1.4022	-0.0843	8.9832
1.0379	0.4146	9.7435
1.5799	2.7045	9.4869
1.2185	0.2261	10.3357
1.2927	-0.7980	9.9469
0.6736	2.2145	8.5824
0.2207	1.1982	8.2618
1.0821	0.7729	9.9427
1.3992	1.3017	9.7280
0.9799	0.2536	9.1555
1.9077	0.0185	10.4434
0.4134	0.5157	9.7854
0.1226	1.8604	9.2261
1.2132	0.7047	9.1956
0.5767	-0.5964	8.1691
1.3196	2.4042	10.5894
1.9394	1.7456	8.2229
1.0845	-1.2802	10.3555
1.2927	1.1228	10.6785
0.1131	0.7807	9.3230
0.7394	0.3057	9.4241
1.6169	-0.0586	9.4271
0.8764	-0.4780	9.3020
1.1527	1.0816	10.2562
0.2985	-0.6275	10.4135
1.2544	0.1113	9.7363
1.0181	1.8138	8.8648
0.6371	1.3017	8.3521
1.4016	1.1198	9.9738
1.1569	1.1408	9.5928
0.7059	0.6933	9.5054
1.0582	0.6167	10.7084
0.6227	0.3458	9.1136
0.5037	0.4534	9.2225
1.6552	0.6700	9.0795
0.7537	-0.0658	9.0795
1.4973	0.5025	10.3537
0.7693	1.6026	9.4492
0.7358	-0.3314	9.8674
1.4865	0.5641	10.0701
0.1998	1.3848	9.2368
1.5984	0.5127	9.9942
1.6504	0.6156	9.7734
1.1402	-0.3081	10.5613
0.5773	1.6965	10.5864
0.2195	1.1426	9.7411
0.5300	-1.3591	9.4803
0.9404	2.1559	9.5168
0.3547	1.0624	8.5597
1.0181	-0.2967	11.0817
1.1354	-0.0419	10.0211
0.5671	0.2847	9.4642
2.1284	0.6802	9.7836
0.9906	1.0594	8.7457
0.9637	1.1713	9.2464
1.0660	1.0702	9.0699
0.5270	-0.6437	9.9050
0.6670	1.1408	10.3471
0.5743	1.7797	8.9724
0.6030	-1.0851	9.5186
1.6534	1.4991	9.7178
0.5174	0.2949	9.3954
0.7184	1.4429	9.8261
0.4917	1.0157	10.7156
0.9398	-0.3697	9.6753
1.5577	1.5344	9.3284
1.0319	0.7125	9.2853
1.2353	1.6618	9.2596
0.3912	0.8835	9.4486
0.6305	-0.0102	9.6598
0.8608	0.1807	10.5349
0.8016	-0.3930	9.5240
1.3196	0.8638	9.5988
0.5659	0.9852	9.3194
1.6050	0.4451	9.4480
0.5491	0.9709	9.3840
0.7262	1.1396	9.4971
0.7813	0.8859	9.5682
1.0971	0.3972	9.6849
0.9846	0.6574	9.9583
0.7525	0.7735	9.7836
1.1647	1.0600	9.9469
0.4935	-0.0287	9.5527
0.8465	1.3406	8.8378
0.6658	0.9948	9.1411
1.2502	0.0024	9.5347
1.1384	0.9218	10.2897
0.8465	0.5773	9.9128
1.1396	1.1408	9.4450
1.0798	-0.2985	9.6723
0.9894	1.3579	9.1310
0.8052	1.5487	9.0287
0.7442	-0.6825	10.1485
1.0534	1.1216	10.6857
0.5133	1.1079	9.5347
1.3472	1.2006	8.7571
0.9117	0.1795	9.2141
0.6580	0.9182	9.6819
0.6556	1.5828	9.6251
0.5641	-0.1771	9.8763
1.5547	0.7256	9.7028
0.6120	0.8841	9.1435
1.6409	0.9158	9.3690
0.8094	0.4672	9.9625
1.1450	0.5384	9.4283
0.7813	1.2819	8.9491
0.6514	0.1603	8.9946
1.4028	0.7884	9.7202
0.1801	-0.0999	10.3459
0.9535	0.3978	9.7914
0.8405	0.9954	9.3511
0.6688	0.6365	8.4161
1.7922	1.7497	8.1296
0.5019	0.7807	8.9001
1.1611	0.0790	9.9122
0.7472	0.6526	10.3268
0.4056	0.4379	10.3549
1.3172	1.0887	9.1962
1.1533	0.2758	10.0845
1.1354	0.6712	9.3152
0.6251	1.0863	9.7884
1.1156	0.6592	9.3272
1.1318	0.4050	9.4061
1.2580	0.7298	9.5300
1.4082	1.7288	8.9593
1.1509	0.0185	10.2520
1.2802	-0.2106	10.0851
0.8231	1.1844	9.6185
0.8321	1.0564	9.0161
0.8375	0.5414	9.4905
0.3326	-0.1017	10.1557
0.7932	1.4901	9.3810
0.6562	0.9601	9.6735
1.4315	0.1801	9.3080
1.0941	1.2538	10.3393
0.4457	0.9230	9.5515
1.3478	0.2871	10.1988
0.3422	-0.2895	9.2530
1.3872	2.1810	8.9665
0.4008	0.7466	8.9575
0.9308	0.0329	9.7304
0.9966	0.1466	9.7663
1.0331	0.7430	9.5437
1.5362	0.9314	9.4689
0.8979	0.0197	9.8267
0.6682	0.7226	9.4636
0.0455	1.0445	9.0089
0.9912	0.5725	9.8739
1.0612	0.9129	9.1256
0.9649	0.6317	9.7459
1.3579	0.6975	9.7226
0.3757	0.3924	9.3667
1.0032	0.6479	9.1920
0.5647	1.4949	9.2374
0.3260	0.3727	8.8402
1.0989	0.7759	9.0574
0.4696	0.4271	9.2614
1.6540	0.3541	8.9036
0.6054	0.9852	9.0448
1.1635	0.7280	9.6957
0.8483	0.7866	10.2652
0.0084	0.5139	10.2179
1.3166	1.1474	9.1944
0.7663	0.0778	9.9445
1.5493	0.4050	9.0652
0.5426	1.4530	9.5024
1.0648	1.0804	9.1357
0.8722	0.7472	10.1497
0.3290	0.0772	9.5060
1.1928	1.2102	9.7238
0.5988	0.0120	9.2739
1.5900	-0.2489	9.7890
0.9027	0.9487	9.0281
0.8674	1.2526	9.5503
1.0917	-0.0066	9.4947
0.1424	0.2094	10.1473
1.2084	0.7101	9.1651
0.7017	1.2957	9.3284
1.2179	-0.4618	10.0624
1.2999	0.6102	9.5198
0.7298	1.5894	9.3236
1.2425	0.6646	9.1495
0.4301	0.2865	10.5601
0.6742	0.1968	9.6131
0.2985	1.1456	9.7621
1.3238	0.5809	9.1872
1.3615	0.3966	9.7405
0.8853	1.3065	9.5024
1.3998	0.8560	9.7740
1.0564	0.5043	10.2705
0.8686	0.4134	9.7052
0.8925	0.7143	9.6741
0.7196	0.5713	8.9419
1.4542	0.6054	9.1537
0.9284	0.6538	9.0071
1.4590	0.4343	9.9972
1.2562	1.3687	9.5832
0.7747	0.8722	10.3465
0.6036	0.4140	9.3870
0.5545	0.8614	9.8141
0.3547	1.0965	8.7493
1.5356	0.8429	9.5054
0.7543	-0.0341	9.4187
1.7031	0.9619	9.4217
0.3894	0.8279	10.0821
1.0128	0.9595	9.7830
0.8112	0.2883	10.2550
0.3924	0.7531	9.9936
0.9290	1.0403	9.5359
0.7059	-0.0449	9.5389
1.8467	0.3081	9.4642
1.1862	0.9499	9.0041
1.0708	1.1222	9.3481
0.7669	-0.0251	9.5306
0.6347	-0.2590	9.6849
1.3340	1.3729	8.6985
0.3182	0.7561	9.3954
1.1838	-0.3781	8.9539
0.6616	0.7836	9.8195
1.1462	0.8465	9.4343
1.3334	1.1880	10.0983
0.7029	0.1735	10.3238
1.0259	0.7226	9.4785
0.1280	1.0445	9.5324
1.0690	0.8913	8.9359
0.5468	1.0319	8.8450
0.9679	0.5294	9.0047
0.6449	0.7956	9.4151
1.0397	0.5348	9.7148
1.2981	0.1472	9.8919
0.8399	1.1677	9.7184
0.6855	0.6425	9.6735
0.8261	1.0738	9.1902
1.0792	0.0772	10.2335
1.2275	0.7866	9.6592
1.2030	1.1844	9.8632
0.8620	0.0269	9.2811
1.6002	1.2550	9.8620
0.4899	-0.2171	9.8177
0.8249	1.2963	9.5629
0.4570	0.6628	10.2011
0.8680	0.4738	9.4283
0.4947	1.0439	8.7050
0.2447	0.8865	8.5968
1.4548	1.1432	8.9330
0.8100	0.5127	9.9966
1.5224	0.4594	9.7980
0.6502	0.9649	9.7459
0.7854	0.8494	10.1180
1.3346	0.1657	9.5282
0.1017	0.9356	9.3415
1.2879	0.6215	8.9988
0.3087	0.8405	9.5258
1.4692	-0.1131	9.2081
0.9523	1.0504	9.2907
0.7083	0.7884	9.5647
1.3280	0.7597	9.4929
0.9057	-0.2112	10.4572
1.0504	0.2345	10.5708
0.9045	1.4794	9.7962
0.8231	-0.0203	9.6185
0.6449	0.5545	8.9240
0.9176	1.5840	8.9383
0.4588	0.5994	8.8115
0.9386	0.4522	9.7830
0.1783	-0.2165	9.9517
1.4375	1.9041	8.9874
0.5354	0.7980	9.3559
0.9511	0.1914	9.9499
0.9541	0.3153	10.2526
0.8925	1.1617	9.8021
1.2066	0.9428	9.7088
0.7172	-0.0281	9.7148
1.2622	0.3224	9.5694
1.4602	1.1180	9.1854
1.0642	0.3021	9.5730
0.8387	0.6616	9.2261
0.6078	0.9147	9.8141
1.3801	0.7914	8.8917
-0.1926	1.0540	9.9547
1.6433	-0.2620	9.1154
0.5809	0.7059	10.2855
1.2604	0.4014	8.6530
0.9194	1.1354	9.2805
0.4217	0.7484	9.4049
1.4788	0.2895	9.9523
0.7059	0.7029	9.9828
0.7950	0.7501	9.8237
1.0570	0.5432	9.8937
0.9996	0.0191	9.9744
0.6646	1.1515	9.1405
0.9781	0.9828	9.3571
0.5773	0.0832	9.2805
1.9836	0.3918	9.7675
0.1591	0.7651	8.9551
1.4500	1.2132	9.2841
0.4774	0.2225	10.3579
1.1868	-0.4205	9.9678
1.0193	1.1162	9.8488
0.7753	1.0175	9.6939
1.1539	0.2255	9.7944
0.2231	0.3398	9.7094
1.3412	0.9374	9.9451
0.5868	1.1270	9.2446
1.1665	0.2399	9.9637
1.1007	-0.0981	9.2901
1.0415	1.7019	9.4725
1.1420	0.3027	9.0634
0.6281	0.8782	10.3561
0.5934	0.2189	9.9678
1.2479	1.0827	9.9188
0.8554	0.4588	9.0915
0.5539	0.9314	9.3302
1.0492	0.4044	9.0323
0.3834	0.6921	9.7190
1.5141	0.2847	9.6065
0.6891	0.5886	10.0791
1.5757	0.8823	9.2153
1.0504	1.3830	9.5359
0.7489	0.6299	9.3661
0.8626	1.0014	10.0594
0.4199	-0.0700	9.7274
1.3274	0.5922	8.7702
0.0909	1.1689	8.9084
1.0744	0.3428	9.1698
0.8052	0.4756	9.4624
1.3454	0.2100	9.8721
0.6514	1.0163	9.8578
1.0379	0.8052	9.8829
1.2622	0.1998	10.1371
0.8136	0.8704	9.7340
0.8740	0.9840	9.7675
1.1192	0.8991	9.5575
0.9691	0.1358	9.9858
1.5954	0.7747	9.4349
0.5420	1.4022	9.4642
1.2736	0.0951	9.2033
1.3513	0.1681	10.3908
0.6736	0.0993	9.6442
0.6520	1.3705	9.5982
1.1312	0.8500	9.4432
0.4881	0.4487	9.3409
1.1324	1.0385	9.1645
0.2716	0.6957	9.3661
1.7067	0.5569	8.7511
0.0467	1.0032	9.6101
1.0205	0.2435	9.2590
0.7442	1.0163	9.6687
0.8901	0.4349	9.5874
1.2401	0.4463	9.9355
0.6437	1.1785	9.9242
1.1222	0.6305	9.6616
0.5127	0.9637	9.3266
1.0050	0.2818	10.0348
0.7585	0.5886	9.2931
0.6622	0.8303	9.6143
0.5264	0.4205	8.8073
1.6809	0.6598	9.4959
0.3176	0.1753	9.6496
1.7414	0.8656	9.9367
0.2674	0.5785	10.1539
1.8138	0.0311	9.9086
1.0816	0.6658	9.8715
0.7735	0.5671	9.6526
1.2562	0.8429	9.6735
0.7172	0.6742	10.0043
1.4189	-0.0981	9.7369
0.4475	1.7701	9.4031
0.5282	0.7268	9.3774
1.4746	0.6562	9.5910
0.6161	0.6628	9.8721
0.9840	0.7824	9.1495
0.8506	1.1468	9.4713
0.9152	-0.1711	9.5114
1.4321	0.7232	9.8440
0.5677	0.9972	9.1896
1.2155	0.5288	9.3499
1.0606	0.5013	9.7363
0.8662	0.1501	10.3543
1.2598	0.9769	9.3900
0.2788	1.4058	9.4678
1.7623	-0.1513	9.6323
0.8189	0.9428	9.8572
1.0696	0.9063	9.6101
0.6496	1.6516	9.4486
0.8429	0.3990	9.4684
0.8680	0.1394	8.9784
0.7286	0.8339	9.4396
0.4181	0.6018	9.4121
1.2652	0.8548	8.9958
0.4851	0.3494	9.3762
1.3639	0.2207	9.6526
0.7011	1.4614	9.2931
1.2658	0.6078	10.3274
0.6897	0.6514	9.4552
1.0821	0.2806	10.0199
0.3697	0.8195	9.5013
1.0415	1.1569	9.8333
0.5856	-0.0377	10.0073
1.9442	0.4618	9.5365
0.8243	0.8644	9.6071
1.5212	0.6796	10.2394
0.6592	0.5306	10.2987
1.1180	0.5222	10.2933
1.4058	0.5856	9.2787
0.5581	1.0582	10.3046
1.1767	0.2142	9.6203
0.9009	1.1186	10.3166
1.1474	0.4050	9.7513
0.9308	1.2544	9.1280
0.6251	0.4816	10.1192
1.2963	0.3356	9.4349
1.0343	0.5408	9.4354
0.6383	1.0008	9.0460
1.3902	0.7597	9.4576
0.7352	0.5665	9.8620
1.5464	0.4152	9.1238
0.6730	1.5368	9.0137
0.9643	0.7202	9.1627
1.2909	0.3852	9.5659
1.0157	0.2231	9.7890
0.7095	0.4905	9.4211
0.7071	1.0618	10.0666
0.4349	0.4050	9.3565
1.5529	0.4427	10.2011
-0.0389	0.7316	9.8416
1.3669	0.8907	9.9194
0.4564	1.3507	9.7507
1.3687	-0.1609	10.6719
0.7962	0.4666	9.5443
0.8788	1.2341	9.5060
0.9206	0.3840	9.1698
1.3777	0.6078	10.8083
0.3649	-0.0317	10.0097
1.3878	1.3753	9.9595
0.6736	0.7406	9.4366
1.5751	0.0664	10.4159
0.9009	0.6652	10.1503
0.8130	0.6574	10.3088
1.2461	0.8231	9.5377
0.3906	0.7274	9.1932
1.4847	0.0072	9.4414
0.7442	1.1575	9.8416
0.9117	0.8076	9.5718
1.1832	1.1743	9.2721
0.8345	0.6257	9.8117
1.2215	0.3936	9.7316
1.2819	1.4357	9.0682
0.6520	0.9099	9.5694
1.5781	0.4128	9.7142
0.6150	0.9799	9.4343
1.4602	0.4672	9.2201
0.5151	1.2275	9.0424
1.1850	0.2213	10.0342
1.1366	0.3858	9.1603
1.2628	0.7340	9.3918
0.8907	0.8758	8.5250
1.2634	1.2365	9.2518
0.4558	0.4768	9.6478
1.6319	0.6150	9.2189
0.1938	1.2676	8.9826
1.0869	0.7053	9.2512
0.7472	0.7430	9.3810
1.1725	0.0347	10.0319
0.9123	0.3912	9.1992
0.8106	1.0947	9.5324
0.8183	0.7711	9.3667
1.5218	0.3290	9.2644
0.5641	0.9619	9.1974
1.8341	0.6622	9.2380
0.3164	1.5547	8.9318
1.4811	-0.1131	9.9397
0.9284	0.6520	9.2602
0.6161	0.7842	9.4731
0.7484	0.6365	8.9521
0.9398	1.1354	9.5515
0.6784	-0.1454	9.3200
1.5978	0.9559	9.4205
0.4540	1.4315	9.0376
1.3370	0.6185	8.8725
0.8130	0.7813	9.5168
1.1390	0.0365	9.9308
1.0146	0.8231	9.8931
0.7669	1.3585	9.2147
0.9763	0.4816	9.7238
1.5739	0.2877	9.5790
0.7813	0.8231	9.9403
1.3298	0.6054	9.2010
0.6676	1.2562	9.6939
0.4385	-0.0700	10.1341
1.1701	0.9589	9.8021
0.3852	0.9015	9.6083
1.1791	0.5677	9.8309
0.6281	0.7950	9.9140
1.3950	0.2213	10.0857
1.1055	0.6203	9.3888
0.6538	1.3083	10.3651
0.3685	0.1077	10.1126
1.2305	0.7890	10.2903
0.5019	-0.0006	10.2394
1.3812	0.8776	10.3842
0.0096	1.2185	10.3262
1.4949	0.4899	10.0510
0.7657	0.2949	9.6065
1.1246	0.6634	9.8446
0.6556	0.4002	9.4546
0.9033	1.0684	10.0289
0.6796	0.2441	9.5347
1.5266	0.4887	10.2406
0.2249	0.9356	9.8751
1.3956	0.5916	9.4947
0.5904	0.8082	9.6143
1.2987	-0.0873	9.9200
0.7980	0.3159	9.3906
0.7316	1.4943	9.3481
0.3290	0.6090	9.0424
1.3609	0.6526	9.6448
0.4863	0.5019	9.6915
1.6929	0.7011	9.4097
0.6700	1.3424	9.4594
1.2060	0.5635	9.6711
1.1689	0.2297	10.1653
0.3021	0.7041	9.5748
0.9517	0.6425	9.4911
0.4917	1.2580	9.2500
1.0104	0.5982	10.0073
0.8022	-0.3876	10.0462
1.3896	0.6849	10.0534
0.5994	0.6754	8.8014
1.2676	1.1886	9.3158
0.4738	0.7382	9.3355
1.9406	0.0969	9.9403
0.5599	1.1073	8.7954
1.1043	1.1755	9.3032
0.8829	0.8333	8.5722
0.8064	0.8704	9.4474
0.8512	0.1501	9.6287
1.0475	1.6421	9.0969
0.4116	1.1127	9.4432
1.1898	0.2160	9.9858
1.1264	0.5683	9.9714
0.7113	-0.0754	9.8805
1.3537	1.3783	9.5234
0.4122	0.8901	9.2973
1.6187	0.3374	9.6945
0.8273	0.6203	9.9242
1.0899	0.6203	9.4217
0.7172	0.7902	9.1681
0.7178	0.9248	9.6622
0.8100	-0.1334	10.0977
1.3119	0.5378	9.3810
0.4624	1.0469	9.8973
1.1491	0.4959	9.3104
1.0337	0.8488	9.7034
1.0199	0.1579	10.2951
1.6074	1.0486	9.7465
0.3494	0.9637	9.7172
1.3316	0.5886	9.3332
0.7944	0.6126	9.7154
0.9978	0.4403	9.6670
1.0044	0.7196	9.5922
0.7011	0.9733	9.3218
1.0445	0.4600	9.2470
1.1491	0.4564	9.4349
0.9727	0.7968	9.6921
0.7137	0.6449	9.6382
1.0720	1.2006	9.2602
0.8142	0.8806	9.3589
1.2915	-0.0036	9.7369
0.9386	0.8740	9.9170
0.5844	0.6287	9.8548
1.2736	0.6915	9.4259
0.4391	0.8465	9.4151
1.0528	0.0664	9.6012
1.0080	0.7681	9.3601
0.9129	1.3035	9.4283
1.0259	0.4744	9.3565
0.7759	1.1701	9.4426
1.1946	0.1513	10.1461
1.1719	0.1681	9.9613
0.8070	1.1509	9.5545
0.5982	0.5198	9.5778
1.0295	1.1994	8.9665
0.8225	0.2393	10.0444
1.1055	0.0820	9.6484
0.7256	1.2443	9.6729
0.5252	0.8459	9.3930
1.2670	0.8560	9.0460
0.7609	0.2411	9.9062
1.2185	0.4786	9.4695
0.7543	0.9703	9.6568
0.8638	1.2335	9.2081
0.9069	0.3434	9.7238
0.9404	0.3242	9.7716
0.9781	0.9470	9.5395
0.8273	0.4068	9.3379
0.8459	1.5816	8.9886
0.6718	0.2034	9.7968
1.4542	0.2375	9.4558
1.1336	0.8465	10.1114
0.7466	0.3864	9.7848
1.1982	1.6157	8.9886
0.3386	0.7807	9.8476
1.2395	0.1083	9.4510
1.0463	0.5982	10.2502
0.8393	0.6203	9.5228
1.3836	0.9296	9.3026
0.5713	0.7519	9.7411
1.3525	0.5001	9.5054
0.8387	0.3224	9.8476
0.9069	1.1031	9.3104
0.7382	0.4397	9.7944
0.7669	0.7681	9.5013
1.0403	0.6784	9.2027
0.9733	0.1513	9.9266
1.1133	1.2586	9.0341
0.5569	0.4181	10.0588
1.1617	0.5168	9.3894
0.8674	1.0756	9.4283
0.6993	-0.0790	10.0959
1.5577	0.8865	9.1860
0.3476	0.6879	10.1389
1.2287	0.4187	9.3158
0.6281	1.1228	9.3571
0.6048	0.0538	9.8727
1.3125	0.5928	9.4725
0.6138	0.9410	9.8285
1.0654	0.8500	9.2231
0.9075	0.6748	9.4558
1.1527	0.4116	9.6819
1.1426	0.4804	9.4845
0.9254	0.7352	9.8650
0.6742	0.9416	9.4923
0.7519	0.5079	9.5443
0.9129	0.7340	9.5551
1.0116	0.8488	9.3858
1.0798	0.3422	9.9009
0.8207	1.0971	9.5527
0.7537	0.7884	9.1998
1.0821	0.2919	9.9122
0.9242	0.9129	9.3930
1.0379	0.4415	9.6616
1.0905	0.7268	9.5736
0.7513	1.2694	9.0831
0.8752	0.0407	9.8039
1.2149	0.8524	9.3116
0.8142	0.7298	9.6059
1.1665	-0.1071	10.1437
0.8584	1.2957	9.2261
0.6263	0.5168	9.4660
1.1892	0.5408	9.1710
0.6275	1.1916	9.3056
1.0881	0.0532	9.9349
1.2598	0.6060	9.4606
0.8076	0.7974	9.7118
1.0726	0.5157	9.5318
0.9117	1.0612	9.4989
0.9266	0.3823	9.7172
1.0247	0.4564	9.5964
0.6975	0.9248	9.7274
0.8417	0.9308	9.5306
0.9320	0.6275	9.7501
0.8650	0.7436	9.6089
0.9284	0.6048	9.4307
0.9583	0.5031	9.5677
0.5426	1.0098	9.3786
0.8273	0.7418	9.5282
1.0552	0.6592	9.7184
0.9051	0.7442	9.4725
0.9936	0.5868	9.5437
0.9930	0.7561	9.5730
0.8381	0.8321	9.4289
0.9733	0.4833	9.6155
0.8429	0.6574	9.6813
0.9260	0.7950	9.3619
1.0325	0.3224	9.7447
0.8782	0.7872	9.5359
0.8393	0.8823	9.7728
0.8835	0.3745	9.9003
0.8853	0.7657	9.5635
0.6592	0.7137	9.6550
1.2048	0.1077	9.7262
0.8399	1.0528	9.4582
0.8159	0.5970	9.4480
0.8524	0.5826	9.8536
0.7107	0.8542	9.3254
1.0857	0.4947	9.4654
1.0032	0.5234	9.7417
0.7693	0.7884	9.4414
1.0026	0.5079	9.4731
1.0367	0.7525	9.4875
0.8632	0.9158	9.4378
1.0929	0.5001	9.4851
1.0475	0.7400	9.6035
0.7807	0.8082	9.6239
0.9218	0.4355	9.9852
1.0433	0.8405	9.7310
0.7292	0.8159	9.5300
1.0690	0.1172	9.9439
1.0839	0.8022	9.4426
0.8028	0.9194	9.6269
0.8961	0.3858	9.8446
0.9775	1.0062	9.4031
0.9529	0.3942	9.6233
0.8118	0.2847	9.6466
1.1605	0.9888	9.0753
0.9368	0.5856	9.4354
0.8644	0.5515	9.7782
0.8650	0.9781	9.4522
0.9912	0.5856	9.5766
0.9517	0.6305	9.7244
1.0181	0.8159	9.5024
0.8889	0.4708	9.5300
0.9673	0.6993	9.5778
0.8644	0.8937	9.6466
1.1067	0.4217	9.5647
0.9619	0.7232	9.4959
0.9386	0.8052	9.6735
1.0439	0.5127	9.7740
0.7472	0.6790	9.6317
1.0307	0.6999	9.6867
1.0014	0.3464	9.8297
1.0995	0.6191	9.3140
0.8435	0.8064	9.6580
1.0367	0.4241	9.6012
0.7926	0.8441	9.7100
0.9105	0.7543	9.7854
0.8895	0.5151	9.4450
1.0845	0.8154	9.4055
0.8794	0.7059	9.6514
0.9535	0.4899	9.5910
0.9105	0.9583	9.3086
0.7573	0.5019	9.7232
0.9123	0.4618	9.4151
0.9188	0.8465	9.1663
0.6724	0.5533	9.8010
0.7836	0.4457	9.2847
0.8411	0.9966	8.9838
0.8668	0.5438	9.5072
0.9757	0.5049	9.3906
0.9338	0.9380	9.2991
0.8668	0.6879	9.5509
0.9302	0.6963	9.5342
0.7633	0.8943	9.2291
0.8794	0.5103	9.6885
1.1545	0.4283	9.5353
0.8566	0.8315	9.0239
0.6227	0.6173	9.6598
0.8267	0.6060	9.4229
0.9057	0.9942	8.9641
0.8823	0.6616	9.4887
0.9446	0.5216	9.5611
1.0463	0.8004	9.1603
0.9631	0.6778	9.8739
0.8566	0.5204	9.2979
1.0624	1.1384	9.1878
0.7819	0.5067	9.7962
1.1713	0.6161	9.2422
0.9559	0.8746	9.2799
0.7848	0.6138	9.3774
0.9685	0.6036	9.2626
0.7418	0.7178	9.3248
0.9571	0.6873	9.6161
0.8674	0.6012	9.5042
0.8638	0.7334	9.5306
0.9075	0.4140	9.6382
1.0540	0.5174	9.5778
0.8016	0.6030	9.5844
0.9918	0.7920	9.8620
0.8381	0.6084	9.6664
0.9852	0.6843	9.4570
0.8698	0.6138	9.8416
0.9972	0.2829	9.7369
0.9559	0.9643	9.7710
0.6766	0.5707	9.6538
1.1994	0.3817	9.7722
0.8465	0.7579	9.5072
0.8722	0.9117	9.5150
0.7777	0.5121	9.9535
0.7741	0.3601	9.4695
1.1204	0.8046	9.3206
0.8710	0.7358	9.7639
1.1838	0.4050	9.3714
0.9781	1.1408	9.3009
0.9984	0.8506	9.5455
0.9248	0.4457	9.6329
0.6508	0.6167	9.0885
1.1503	0.5958	9.7399
0.8219	0.3763	9.5569
1.1300	0.9822	9.5880
0.9840	0.7555	9.7842
0.8835	0.7113	9.5138
0.9404	0.6837	9.5946
0.7382	0.5647	9.5252
1.0211	0.6963	9.5216
0.8722	0.5671	9.4390
1.1013	0.7489	9.4211
0.8566	0.7172	9.6915
0.9188	0.4995	9.4695
0.8423	0.7633	9.6454
0.8261	0.6909	9.5593
0.8937	0.7298	9.4133
0.7878	0.6837	9.5599
1.1749	0.5192	9.6520
1.0576	0.5324	9.6568
1.0181	0.8082	9.5599
1.0277	0.7340	9.7154
0.8644	0.5509	9.6969
0.6718	0.8459	9.6167
0.8680	0.5444	9.7016
0.8243	0.6383	9.5886
1.1073	0.6293	9.5892
1.0092	0.7137	9.5569
0.9822	0.6407	9.6729
0.9105	0.6556	9.5808
0.8016	0.7340	9.5874
0.9410	0.7771	9.4839
0.8907	0.6006	9.6035
0.9834	0.5856	9.5144
0.9278	0.7190	9.4971
0.9972	0.6903	9.5772
0.8734	0.6347	9.5934
0.8686	0.5797	9.6532
0.9170	0.7424	9.4935
0.9799	0.7645	9.6478
0.9918	0.6311	9.6442
0.9745	0.7370	9.6412
0.9493	0.6670	9.5264
0.9051	0.6784	9.6263
1.0074	0.6712	9.5946
0.9882	0.5115	9.5844
0.9763	0.5438	9.5324
0.9709	0.6927	9.5150
0.8728	0.6490	9.5545
1.0857	0.7178	9.5240
0.8548	0.6132	9.5850
0.9254	0.7591	9.5856
0.8076	0.7842	9.5736
0.9129	0.6802	9.6155
0.9338	0.4929	9.6759
0.9368	0.5862	9.5425
0.9326	0.8154	9.5072
0.8859	0.6766	9.5988
0.9075	0.6257	9.6897
0.9302	0.6209	9.5539
0.9571	0.7579	9.4797
0.9535	0.7591	9.4504
0.9559	0.5994	9.6460
1.0193	0.5803	9.6346
0.8698	0.7149	9.5988
0.9440	0.6520	9.5820
0.8614	0.6975	9.6592
0.9505	0.5761	9.5365
0.9679	0.6640	9.6197
0.9482	0.6676	9.4941
1.0403	0.6915	9.5814
0.8548	0.7220	9.6915
0.9834	0.6042	9.6209
0.9320	0.6550	9.8004
0.8937	0.7149	9.5766
0.9942	0.6473	9.5252
0.8345	0.6072	9.6341
0.9882	0.6084	9.5694
0.8596	0.6969	9.5198
0.9147	0.6120	9.5443
0.9476	0.6963	9.5383
0.8967	0.6036	9.5844
0.9990	0.8225	9.5371
0.9374	0.7280	9.6000
0.9314	0.7262	9.6239
0.9236	0.6245	9.5694
0.9422	0.6221	9.6777
0.9416	0.6431	9.5856
0.9559	0.6401	9.4360
0.9470	0.6269	9.5778
0.8883	0.6885	9.5940
0.9248	0.6538	9.7926
0.9864	0.6419	9.6394
0.9733	0.6915	9.6113
0.9649	0.6610	9.5383
0.9194	0.7424	9.6161
0.9015	0.6586	9.5748
0.8788	0.7208	9.6484
0.8889	0.5707	9.6358
0.9511	0.6861	9.6759
0.9541	0.6281	9.6418
0.9027	0.6891	9.4923
0.9595	0.6718	9.5802
0.7723	0.7478	9.6197
0.9386	0.6514	9.5455
0.9649	0.6604	9.6185
0.9296	0.6502	9.6664
0.9817	0.6126	9.6394
0.8728	0.6820	9.6370
0.9057	0.7137	9.6346
0.8925	0.6293	9.6053
0.9793	0.6670	9.5862
0.9458	0.6634	9.5641
1.0588	0.6586	9.5377
0.9631	0.6873	9.6352
0.8835	0.7274	9.5892
0.9290	0.6496	9.6089
0.8853	0.6724	9.6442
0.9643	0.6371	9.6006
0.8997	0.6951	9.5521
0.9003	0.6389	9.6406
0.8895	0.6736	9.5467
0.9601	0.6670	9.5844
0.9601	0.6580	9.6071
0.9936	0.8333	9.5826
0.9296	0.7083	9.4941
0.9583	0.7029	9.5659
0.9894	0.6179	9.6341
0.9266	0.6449	9.6203
0.9164	0.6203	9.6472
0.9320	0.6455	9.5270
0.9123	0.6610	9.6149
0.8883	0.7041	9.5617
0.9081	0.7089	9.6376
0.8985	0.6514	9.5970
0.9434	0.6293	9.6825
0.9404	0.6347	9.6275
0.8578	0.6760	9.6185
0.9236	0.6939	9.6041
0.9834	0.6742	9.5515
0.9182	0.6604	9.5324
1.0134	0.6658	9.5527
0.9787	0.6317	9.5138
0.9224	0.6604	9.6012
0.7669	0.6742	9.6610
0.9272	0.6808	9.5742
0.9733	0.6766	9.5497
0.9691	0.4708	9.5694
0.9685	0.6837	9.6017
0.9141	0.7077	9.5718
0.9105	0.6670	9.5563
0.9009	0.6837	9.5868
0.9368	0.6652	9.6364
0.9398	0.5707	9.5036
0.9649	0.6580	9.5886
0.8806	0.7041	9.5940
0.9709	0.6293	9.5671
0.7920	0.7155	9.5347
0.9476	0.6796	9.6119
0.9386	0.7137	9.5940
0.9476	0.7143	9.5976
0.9894	0.6060	9.5395
0.9350	0.6855	9.5772
0.9296	0.6760	9.6275
0.9176	0.6556	9.5988
0.9063	0.6688	9.5635
0.9805	0.6437	9.5671
0.8967	0.7184	9.6006
0.9278	0.6933	9.6006
0.9434	0.6945	9.5988
0.8913	0.6885	9.5736
0.8991	0.6473	9.5347
0.8901	0.6401	9.5766
0.9470	0.6586	9.5934
0.9009	0.6574	9.5491
0.8991	0.6676	9.6149
1.0277	0.6652	9.5778
0.9188	0.6843	9.5413
0.9595	0.7149	9.5635
0.9595	0.6610	9.6364
0.9218	0.6461	9.6125
0.9057	0.6179	9.6059
0.8931	0.6754	9.5748
0.9589	0.6574	9.5377
0.9242	0.6556	9.5874
0.9410	0.6718	9.6203
0.9446	0.6784	9.5413
0.9141	0.6975	9.5336
0.9697	0.7011	9.6317
0.9757	0.6167	9.5395
0.8441	0.6580	9.6029
0.9679	0.6341	9.5617
0.9123	0.6455	9.5874
0.9559	0.6275	9.5784
0.9733	0.6449	9.5808
0.9649	0.6873	9.5485
0.9344	0.6855	9.6143
0.9775	0.6855	9.5359
0.9362	0.6317	9.5760
0.8680	0.6963	9.6251
0.9864	0.6138	9.5365
0.9188	0.6299	9.5760
0.9057	0.6485	9.5413
0.8255	0.7184	9.5533
0.9015	0.6843	9.5964
0.8949	0.6682	9.5688
0.9242	0.7262	9.6358
0.8841	0.6598	9.6257
0.9069	0.7238	9.5222
0.9308	0.7089	9.5802
0.8800	0.6604	9.5748
0.9380	0.6443	9.5557
0.9338	0.6281	9.5874
0.8626	0.6490	9.5497
1.0223	0.7095	9.5796
0.8399	0.6150	9.6855
1.0421	0.7119	9.5551
0.8961	0.6903	9.6113
0.9834	0.6754	9.6179
0.8919	0.6939	9.5306
1.0104	0.6419	9.5784
0.8692	0.6616	9.6173
0.9212	0.6969	9.5599
0.9535	0.6179	9.5736
0.9188	0.6269	9.5778
0.9302	0.6604	9.5712
0.9194	0.7262	9.5533
0.8716	0.6335	9.6269
1.0116	0.6837	9.5240
0.8752	0.6604	9.6861
0.9613	0.6814	9.5575
0.9135	0.6144	9.6197
0.9721	0.6796	9.5455
0.8506	0.6592	9.6418
0.9727	0.6514	9.5581
0.8913	0.6544	9.6191
0.9745	0.6820	9.5742
0.9410	0.6072	9.6053
0.9924	0.7029	9.5617
0.9769	0.6197	9.6095
0.9117	0.7160	9.6699
0.9505	0.6730	9.5772
0.8788	0.4594	9.6113
1.0122	0.6778	9.5347
0.8345	0.6616	9.6251
1.0223	0.5725	9.5389
0.8417	0.7286	9.6053
0.9135	0.4648	9.6125
0.8829	0.7304	9.5838
0.9266	0.6024	9.5425
0.9966	0.6790	9.6012
0.8159	0.6670	9.6358
1.0068	0.6951	9.5138
0.8901	0.6724	9.6376
0.9547	0.6359	9.5748
0.9972	0.7011	9.5240
0.8590	0.6120	9.6496
1.0086	0.7017	9.4642
0.8979	0.7125	9.5886
0.9589	0.6359	9.5318
1.0588	0.7238	9.5192
0.8034	0.6269	9.6490
1.0839	0.6796	9.4678
0.8536	0.6855	9.6161
0.9535	0.6227	9.5784
0.9948	0.6921	9.6143
0.8082	0.5838	9.6448
1.0325	0.7065	9.4558
0.8548	0.7334	9.6723
0.9817	0.6120	9.5826
0.9577	0.6969	9.5916
0.9326	0.6239	9.7202
0.8674	0.7143	9.5288
0.9769	0.6490	9.5964
0.9254	0.6449	9.6131
0.8770	0.6969	9.4959
1.0337	0.6383	9.5551
0.8590	0.6891	9.6137
0.9864	0.6209	9.5210
0.9135	0.7077	9.6281
0.9236	0.6496	9.5844
0.9828	0.6449	9.5210
0.8740	0.6808	9.6388
0.9368	0.6754	9.5162
0.9440	0.6544	9.5820
0.8901	0.6514	9.6454
0.9655	0.6897	9.5138
0.9344	0.6610	9.6000
0.9027	0.6915	9.6053
0.9314	0.6772	9.6017
0.9272	0.6867	9.5778
0.9356	0.6455	9.5976
0.9248	0.6347	9.6251
0.9272	0.7107	9.5856
0.9380	0.6299	9.5736
0.9338	0.6251	9.6047
0.9296	0.7083	9.5772
0.9697	0.6664	9.5916
0.7914	0.6371	9.6006
0.9559	0.6652	9.5802
0.9141	0.6993	9.5730
0.9601	0.6706	9.5808
0.9320	0.6808	9.5988
0.9410	0.6323	9.5712
0.9212	0.6592	9.6281
0.9679	0.6550	9.5641
0.9452	0.6359	9.6125
0.9027	0.7041	9.6053
0.9404	0.6461	9.5240
0.9571	0.6556	9.6376
0.8991	0.6939	9.5940
0.9404	0.6831	9.5132
0.9583	0.6030	9.6209
0.9230	0.7137	9.5964
0.9182	0.7101	9.5892
0.9242	0.6239	9.5958
0.9290	0.6640	9.5682
0.9332	0.6981	9.5694
0.9057	0.6706	9.6460
0.9356	0.6227	9.5557
0.9505	0.6616	9.5437
0.9302	0.7274	9.6155
0.9368	0.6108	9.5682
0.9745	0.6508	9.5665
0.9039	0.6598	9.5802
0.9350	0.7125	9.5383
0.9230	0.6592	9.6209
0.9356	0.6126	9.5736
0.9278	0.6825	9.5617
0.9224	0.7095	9.6173
0.9314	0.6562	9.6095
0.9493	0.6550	9.5784
0.9338	0.6568	9.5521
0.9081	0.7466	9.6281
0.9182	0.6401	9.5509
0.9625	0.6514	9.5647
0.9164	0.6580	9.6203
0.9428	0.7029	9.5174
0.9075	0.6927	9.6418
0.9428	0.6269	9.5659
0.9739	0.6730	9.5587
0.9320	0.6449	9.5994
0.9745	0.6766	9.5802
0.9368	0.6742	9.5988
0.9661	0.6341	9.5521
0.9882	0.6700	9.5952
0.8602	0.6879	9.5964
1.0235	0.6712	9.5252
0.8758	0.6407	9.6628
0.9482	0.6395	9.5336
0.9206	0.7412	9.5222
0.9087	0.6407	9.6478
0.9583	0.6820	9.5389
0.9314	0.6269	9.6394
0.9254	0.6855	9.5665
0.9577	0.7107	9.5682
0.9141	0.6353	9.6412
0.9356	0.6772	9.5934
0.9164	0.6383	9.5312
0.9715	0.6748	9.5838
0.9194	0.6742	9.5940
0.9757	0.6287	9.5742
0.7854	0.6939	9.6023
0.9129	0.6849	9.5557
0.9852	0.6700	9.6041
0.9230	0.6323	9.6484
0.9900	0.6461	9.5461
0.9248	0.6820	9.6000
0.8997	0.6401	9.4971
0.9482	0.6981	9.5736
0.9027	0.6383	9.6209
0.9529	0.6514	9.5856
0.9206	0.6897	9.5874
0.9404	0.6556	9.5928
0.9493	0.6622	9.5754
0.9260	0.6431	9.5952
0.9458	0.7107	9.5778
0.9021	0.6802	9.5964
0.9505	0.6347	9.6047
0.9272	0.6688	9.5868
1.0696	0.6640	9.5934
0.9087	0.6790	9.5677
0.9356	0.6526	9.5916
0.9464	0.6634	9.5282
0.9314	0.6652	9.5946
0.9332	0.6383	9.5712
0.9541	0.6939	9.5234
0.9505	0.6251	9.6179
0.9380	0.6915	9.5772
0.9374	0.6790	9.5347
0.9476	0.6664	9.6418
0.9272	0.6682	9.6071
0.9158	0.6628	9.6017
0.9302	0.6706	9.5832
0.9033	0.6814	9.5844
0.9386	0.6808	9.5587
0.9224	0.6538	9.5814
0.9529	0.6544	9.6017
1.0708	0.6873	9.6107
0.9440	0.6640	9.5653
0.9440	0.6610	9.6161
0.9487	0.6664	9.5898
0.9452	0.6748	9.5730
0.9487	0.6479	9.6161
0.9577	0.6700	9.6006
0.9434	0.6694	9.5796
0.9284	0.6736	9.5946
0.9392	0.6658	9.5886
0.9254	0.6568	9.6179
0.9410	0.6610	9.5748
0.9565	0.6927	9.5724
0.9045	0.6568	9.5940
0.9302	0.6742	9.5802
0.9206	0.6616	9.6006
0.9446	0.6706	9.5928
0.9320	0.6610	9.5880
0.9428	0.6538	9.5892
0.9482	0.6658	9.5892
0.9553	0.6556	9.5940
0.9308	0.6694	9.5970
0.9332	0.6670	9.5760
0.9553	0.6712	9.5910
0.9398	0.6736	9.5880
0.9404	0.6538	9.5635
0.9434	0.6712	9.5808
0.9344	0.6700	9.5892
0.9290	0.6622	9.5641
0.9362	0.6628	9.5934
0.9362	0.6640	9.5832
0.9386	0.6814	9.5521
0.9308	0.6700	9.5964
0.9302	0.6688	9.5982
0.9308	0.6808	9.5395
0.9182	0.6772	9.6107
1.0702	0.6544	9.6257
0.9278	0.6802	9.5605
0.9368	0.6784	9.5970
0.9105	0.6568	9.6281
0.9296	0.6754	9.5611
0.9416	0.6730	9.5718
0.9326	0.6670	9.6053
0.9374	0.6718	9.5736
0.9422	0.6658	9.5748
0.9374	0.6562	9.5958
0.9470	0.6790	9.5641
0.9374	0.6688	9.5581
0.9458	0.6568	9.6113
0.9511	0.6820	9.5688
0.9464	0.6808	9.5688
0.9332	0.6574	9.6012
0.9302	0.6790	9.5784
0.9326	0.6778	9.5730
0.9188	0.6580	9.5946
0.9308	0.6796	9.5802
0.9422	0.6748	9.5796
0.9236	0.6664	9.5898
0.9272	0.6562	9.5862
0.9254	0.6825	9.6017
0.9290	0.6706	9.5844
0.9350	0.6640	9.5856
0.9242	0.6502	9.5838
0.9212	0.6831	9.5653
0.9356	0.6724	9.6095
0.9320	0.6640	9.5952
0.9482	0.6562	9.5784
0.9476	0.6634	9.6035
0.9344	0.6736	9.5970
0.9505	0.6682	9.5814
0.9458	0.6538	9.6035
0.9368	0.6712	9.5838
0.9440	0.6652	9.5802
0.9290	0.6580	9.5976
0.9290	0.6604	9.5760
0.9308	0.6646	9.5862
0.9290	0.6814	9.5970
0.9308	0.6652	9.5826
0.9344	0.6736	9.5706
0.9236	0.6586	9.5928
0.9248	0.6652	9.5826
0.9380	0.6742	9.5593
0.9332	0.6490	9.6155
0.9254	0.6700	9.5760
0.9416	0.6688	9.5712
0.9326	0.6604	9.5928
0.9428	0.6802	9.5766
0.9428	0.6556	9.5766
0.9356	0.6736	9.5892
0.9493	0.6658	9.5671
0.9404	0.6640	9.5862
0.9398	0.6604	9.5892
0.9350	0.6616	9.5688
0.9194	0.6736	9.5832
0.9332	0.6736	9.5730
0.9260	0.6574	9.6065
0.9302	0.6682	9.5850
0.9380	0.6658	9.5802
0.9350	0.6586	9.6089
0.9386	0.6712	9.5754
0.9296	0.6664	9.5814
0.9260	0.6742	9.5844
0.9302	0.6796	9.5706
0.9350	0.6634	9.5802
0.9362	0.6646	9.5730
0.9344	0.6592	9.5910
0.9266	0.6724	9.5940
0.9362	0.6772	9.5659
0.9410	0.6586	9.5958
0.9398	0.6700	9.5868
0.9410	0.6628	9.5700
0.9499	0.6568	9.5922
0.9416	0.6628	9.5970
0.9320	0.6580	9.5832
0.9392	0.6652	9.5958
0.9254	0.6634	9.5922
0.9302	0.6682	9.5766
0.9368	0.6694	9.5844
0.9272	0.6610	9.5904
0.9194	0.6742	9.5856
0.9254	0.6748	9.5814
0.9290	0.6628	9.5940
0.9338	0.6670	9.5826
0.9404	0.6628	9.5742
0.9410	0.6562	9.5940
0.9446	0.6628	9.5814
0.9392	0.6724	9.5736
0.9410	0.6556	9.5922
0.9302	0.6664	9.5880
0.9326	0.6772	9.5694
0.9422	0.6592	9.5904
0.9380	0.6580	9.5934
0.9404	0.6676	9.5694
0.9332	0.6760	9.5880
0.9308	0.6724	9.5874
0.9260	0.6724	9.5796
0.9260	0.6706	9.5838
0.9344	0.6658	9.5886
0.9398	0.6676	9.5868
0.9308	0.6676	9.5778
0.9308	0.6646	9.5838
0.9326	0.6682	9.5880
0.9296	0.6730	9.5868
0.9452	0.6712	9.5910
0.9440	0.6694	9.5904
0.9440	0.6688	9.5862
0.9517	0.6676	9.5808
0.9422	0.6670	9.5850
0.9374	0.6682	9.5826
0.9422	0.6682	9.5808
0.9452	0.6718	9.5850
0.9368	0.6646	9.5886
0.9362	0.6622	9.5832
0.9296	0.6604	9.5850
0.9254	0.6664	9.5814
0.9272	0.6724	9.5862
0.9332	0.6712	9.5838
0.9290	0.6658	9.5898
0.9296	0.6706	9.5850
0.9254	0.6694	9.5802
0.9224	0.6706	9.5862
0.9224	0.6694	9.5826
0.9260	0.6688	9.5754
0.9344	0.6628	9.5814
0.9350	0.6616	9.5856
0.9392	0.6628	9.5880
0.9392	0.6658	9.5820
0.9368	0.6646	9.5808
0.9356	0.6634	9.5808
0.9416	0.6670	9.5850
0.9428	0.6622	9.5844
0.9368	0.6652	9.5808
0.9416	0.6688	9.5766
0.9362	0.6598	9.5868
0.9326	0.6652	9.5946
0.9326	0.6658	9.5952
0.9308	0.6610	9.5982
0.9290	0.6682	9.6012
0.9374	0.6724	9.5910
0.9344	0.6634	9.5940
0.9386	0.6634	9.5922
0.9416	0.6646	9.5856
0.9398	0.6646	9.5874
0.9362	0.6652	9.5880
0.9368	0.6670	9.5844
0.9368	0.6700	9.5886
0.9392	0.6646	9.5916
0.9344	0.6628	9.5856
0.9350	0.6616	9.5856
0.9350	0.6634	9.5862
0.9350	0.6688	9.5814
0.9332	0.6688	9.5826
0.9332	0.6706	9.5886
0.9368	0.6700	9.5874
0.9392	0.6676	9.5880
0.9362	0.6598	9.5892
0.9290	0.6592	9.5886
0.9188	0.6706	9.5886
0.9248	0.6670	9.5880
0.9344	0.6682	9.5910
0.9332	0.6664	9.5916
0.9332	0.6658	9.5934
0.9380	0.6682	9.5928
0.9374	0.6682	9.5928
0.9350	0.6694	9.5862
0.9434	0.6694	9.5916
0.9416	0.6718	9.5838
0.9392	0.6616	9.5910
0.9434	0.6634	9.5826
0.9356	0.6694	9.5796
0.9296	0.6706	9.5850
0.9302	0.6652	9.5898
0.9374	0.6652	9.5898
0.9356	0.6652	9.5928
0.9398	0.6676	9.5898
0.9392	0.6694	9.5820
0.9416	0.6658	9.5862
0.9380	0.6688	9.5850
0.9362	0.6736	9.5874
0.9350	0.6688	9.5856
0.9332	0.6646	9.5916
0.9344	0.6652	9.5874
0.9314	0.6676	9.5922
0.9308	0.6634	9.5970
0.9320	0.6652	9.5904
0.9338	0.6682	9.5922
0.9350	0.6670	9.5880
0.9332	0.6682	9.5880
0.9338	0.6676	9.5892
0.9380	0.6664	9.5862
0.9338	0.6676	9.5856
0.9332	0.6676	9.5874
0.9350	0.6670	9.5850
0.9422	0.6700	9.5916
0.9332	0.6658	9.5904
0.9332	0.6604	9.5856
0.9332	0.6676	9.5826
0.9344	0.6706	9.5820
0.9266	0.6712	9.5832
0.9308	0.6724	9.5862
0.9314	0.6670	9.5850
0.9296	0.6676	9.5760
0.9314	0.6676	9.5802
0.9368	0.6640	9.5850
0.9410	0.6646	9.5886
0.9458	0.6676	9.5892
0.9374	0.6676	9.5856
0.9344	0.6670	9.5886
0.9368	0.6646	9.5856
0.9344	0.6634	9.5838
0.9332	0.6658	9.5838
0.9380	0.6682	9.5808
0.9374	0.6646	9.5880
0.9236	0.6676	9.5796
0.9290	0.6664	9.5862
0.9344	0.6664	9.5826
0.9278	0.6658	9.5838
0.9290	0.6682	9.5880
0.9344	0.6706	9.5856
0.9290	0.6694	9.5820
0.9332	0.6670	9.5808
0.9320	0.6688	9.5868
0.9332	0.6676	9.5832
0.9356	0.6670	9.5862
0.9380	0.6676	9.5874
0.9392	0.6688	9.5844
0.9434	0.6694	9.5808
0.9398	0.6670	9.5826
0.9368	0.6670	9.5808
0.9392	0.6658	9.5820
0.9398	0.6670	9.5856
0.9422	0.6652	9.5832
0.9386	0.6682	9.5826
0.9398	0.6694	9.5826
0.9326	0.6700	9.5802
0.9374	0.6682	9.5886
0.9344	0.6640	9.5850
0.9344	0.6646	9.5868
0.9362	0.6694	9.5946
0.9362	0.6628	9.5880
0.9374	0.6664	9.5916
0.9398	0.6652	9.5922
0.9314	0.6640	9.5898
0.9338	0.6700	9.5922
0.9356	0.6664	9.5862
0.9344	0.6652	9.5904
0.9362	0.6670	9.5802
0.9326	0.6652	9.5832
0.9338	0.6718	9.5826
0.9308	0.6664	9.5814
0.9350	0.6682	9.5868
0.9362	0.6712	9.5790
0.9374	0.6694	9.5856
0.9332	0.6682	9.5958
0.9368	0.6652	9.5892
0.9350	0.6682	9.5910
0.9326	0.6676	9.5886
0.9278	0.6670	9.5826
0.9284	0.6700	9.5886
0.9308	0.6694	9.5880
0.9302	0.6664	9.5790
0.9314	0.6718	9.5880
0.9320	0.6688	9.5814
0.9296	0.6718	9.5904
0.9374	0.6706	9.5862
0.9362	0.6694	9.5856
0.9368	0.6604	9.5886
0.9410	0.6604	9.5958
0.9392	0.6598	9.6012
0.9416	0.6616	9.5958
0.9386	0.6646	9.5940
0.9398	0.6634	9.5916
0.9380	0.6658	9.5826
0.9386	0.6652	9.5820
0.9380	0.6682	9.5856
0.9332	0.6706	9.5904
0.9326	0.6682	9.5886
0.9296	0.6682	9.5922
0.9302	0.6664	9.5916
