accelx	accely	accelz
0.9260	0.6628	9.5706
0.9272	0.6658	9.5730
0.9320	0.6646	9.5712
0.9320	0.6664	9.5712
0.9302	0.6682	9.5712
0.9344	0.6664	9.5694
0.9344	0.6658	9.5730
0.9254	0.6658	9.5671
0.9230	0.6664	9.5653
0.9200	0.6652	9.5635
0.9224	0.6652	9.5682
0.9218	0.6682	9.5647
0.9224	0.6706	9.5671
0.9278	0.6694	9.5653
0.9308	0.6658	9.5700
0.9266	0.6568	9.5659
0.9236	0.6724	9.5790
0.9021	0.6712	9.5611
0.9123	0.6843	9.5593
0.8752	0.6562	9.5467
1.0325	0.6395	9.5928
0.9111	0.6586	9.6125
1.0588	0.6078	9.5114
0.9045	0.6957	9.6335
0.9595	0.6742	9.5234
0.8853	0.7190	9.6388
0.8602	0.6921	9.5928
0.9362	0.6975	9.5222
0.8584	0.6598	9.5784
0.9458	0.6353	9.5730
0.8812	0.6311	9.5784
0.9733	0.6323	9.5970
0.9332	0.6604	9.5898
0.9129	0.6909	9.5353
0.9691	0.6825	9.5647
0.8698	0.6993	9.5814
0.9452	0.6837	9.5533
0.9332	0.6628	9.6083
0.9326	0.6467	9.5736
0.9470	0.6335	9.5557
0.9332	0.6760	9.5964
0.8806	0.6508	9.5437
0.9482	0.6718	9.5473
0.9440	0.6544	9.5994
1.0134	0.6138	9.5342
0.9404	0.6652	9.5599
0.9141	0.6730	9.5832
0.8865	0.7214	9.5515
0.8704	0.6718	9.5742
0.8782	0.6670	9.6352
0.8901	0.6580	9.5342
0.9428	0.6610	9.5533
0.8997	0.6407	9.6257
0.8991	0.6676	9.5533
0.8991	0.6802	9.5174
0.9242	0.6808	9.5671
0.9553	0.6401	9.5563
0.9960	0.6179	9.5485
0.9679	0.6556	9.5844
0.9511	0.6311	9.5641
0.9482	0.6586	9.5754
0.9284	0.6508	9.5946
0.9308	0.6706	9.5665
0.9392	0.6574	9.5491
0.9123	0.6652	9.5922
0.8949	0.6987	9.5503
0.9021	0.6784	9.5665
0.8883	0.6592	9.5916
0.9272	0.6670	9.5844
0.9158	0.6640	9.5593
0.9224	0.6682	9.5952
0.9135	0.6706	9.5449
0.9320	0.6724	9.5383
0.9398	0.6718	9.5557
0.9703	0.6628	9.5413
0.9667	0.6592	9.5653
0.9523	0.6562	9.5712
0.9422	0.6766	9.5587
0.9242	0.6640	9.5515
0.9188	0.6233	9.5898
0.9559	0.6413	9.5706
0.9422	0.6401	9.5706
0.9380	0.6676	9.5575
0.9212	0.6903	9.5623
0.9206	0.6808	9.5808
0.9398	0.6784	9.5772
0.9314	0.6700	9.5784
0.9452	0.6628	9.5760
0.8865	0.6754	9.5844
0.8907	0.6490	9.5694
0.8650	0.6604	9.5994
0.9129	0.6395	9.5623
0.9493	0.6592	9.5682
0.9368	0.6526	9.5395
0.9870	0.6820	9.5760
0.9446	0.6754	9.5910
0.9679	0.6933	9.5736
0.9565	0.6353	9.5515
0.9673	0.6317	9.5545
0.9135	0.6598	9.5557
0.9075	0.6520	9.5826
0.8907	0.6502	9.5826
0.8800	0.6802	9.5694
0.9212	0.6814	9.6006
0.9230	0.6796	9.5545
0.9679	0.6897	9.5754
0.9170	0.6873	9.5814
0.9290	0.7065	9.5623
0.8985	0.6389	9.5862
0.9320	0.6365	9.5557
0.8949	0.6562	9.5677
0.8931	0.6263	9.5700
0.8973	0.6443	9.5880
0.8991	0.6945	9.5958
0.9260	0.7023	9.5665
0.9703	0.6694	9.5694
1.0110	0.6879	9.5928
0.9870	0.6945	9.5539
0.9511	0.6598	9.5647
0.9356	0.6592	9.5850
0.8901	0.6150	9.5742
0.8931	0.6299	9.5760
0.8979	0.6299	9.6012
0.8847	0.6502	9.5479
0.9404	0.6748	9.5706
0.9182	0.7089	9.5982
0.9763	0.7322	9.5647
0.9667	0.6837	9.5778
0.9649	0.6718	9.5455
0.9452	0.6652	9.5545
0.8997	0.6173	9.5886
0.8716	0.6443	9.5659
0.8764	0.6197	9.5844
0.8626	0.6538	9.5844
0.9619	0.6646	9.5491
0.9458	0.6891	9.5754
1.0187	0.6981	9.5563
1.0068	0.7089	9.5718
0.9822	0.6766	9.5605
0.9649	0.6670	9.5437
0.8991	0.6197	9.5982
0.8488	0.7645	9.5712
0.8447	0.6401	9.5718
0.8441	0.6299	9.6107
0.8847	0.6592	9.5623
0.9649	0.7143	9.5515
0.9894	0.6909	9.5952
0.9954	0.7418	9.5491
0.9834	0.6586	9.5748
0.9147	0.6718	9.5874
0.9057	0.6574	9.5449
0.8285	0.5982	9.5856
0.8680	0.6006	9.5718
0.8788	0.6203	9.6095
0.8776	0.6461	9.5563
1.0313	0.7011	9.5228
0.9834	0.6843	9.5838
1.0696	0.7262	9.5276
0.9822	0.6855	9.5862
0.9278	0.6909	9.5665
0.8776	0.6831	9.5300
0.8088	0.6024	9.6263
0.8315	0.6048	9.5730
0.8572	0.6299	9.5868
0.9099	0.6455	9.5593
0.9954	0.7071	9.5401
0.9966	0.7149	9.5928
1.0104	0.6915	9.5467
0.9661	0.7244	9.5706
0.9075	0.6772	9.5611
0.8716	0.6586	9.5563
0.8279	0.5725	9.5910
0.8722	0.5904	9.5814
0.8770	0.6341	9.5276
0.9739	0.6485	9.5677
0.9894	0.7077	9.5575
1.0337	0.6706	9.5802
1.0032	0.7208	9.5688
0.9446	0.7077	9.5635
0.9111	0.6814	9.5748
0.8500	0.6233	9.5994
0.8728	0.5934	9.5946
0.8692	0.6108	9.5497
0.9428	0.6490	9.6023
0.9685	0.6502	9.5677
1.0110	0.6915	9.5677
0.9763	0.7250	9.5659
0.9392	0.7495	9.5659
0.8949	0.7107	9.5838
0.8877	0.6245	9.6000
0.8829	0.6197	9.5976
0.8895	0.5605	9.5748
0.9547	0.6508	9.5916
0.9667	0.6179	9.5760
1.0175	0.6867	9.5497
0.9822	0.7370	9.5772
0.9577	0.7304	9.5575
0.7693	0.7125	9.5718
0.8841	0.6544	9.5934
0.8656	0.6461	9.5629
0.8746	0.5791	9.5539
0.9284	0.6449	9.5605
0.9476	0.6078	9.5700
0.9828	0.6933	9.5258
0.9727	0.7292	9.5700
0.9290	0.7214	9.5611
0.9075	0.7286	9.5611
0.8548	0.6736	9.5922
0.9021	0.6167	9.5766
0.8548	0.6036	9.5653
0.9631	0.6042	9.5838
0.9188	0.6287	9.5868
1.0104	0.6550	9.5198
0.9703	0.7340	9.6065
0.9434	0.7418	9.5706
0.9434	0.7155	9.5611
0.8835	0.6473	9.5862
0.8997	0.6227	9.5838
0.8590	0.5898	9.5503
0.9356	0.6066	9.5844
0.9314	0.6006	9.5730
1.0050	0.6700	9.5210
0.9278	0.7573	9.5826
0.9464	0.7424	9.5449
0.9021	0.7232	9.5653
0.8889	0.6646	9.5641
0.8740	0.6161	9.5575
0.8967	0.6185	9.5383
0.9511	0.5731	9.5736
0.9164	0.6496	9.5539
1.0032	0.6538	9.5461
0.9320	0.7334	9.6029
0.9805	0.7412	9.5527
0.9511	0.7208	9.5611
0.9404	0.6365	9.5748
0.8997	0.6251	9.5521
0.9356	0.5898	9.5772
0.9111	0.6197	9.5718
1.0654	0.6365	9.5539
0.9559	0.6353	9.5742
0.9200	0.7633	9.5718
0.9374	0.7597	9.5635
0.9212	0.7226	9.5844
0.9595	0.6574	9.5832
0.9123	0.5988	9.5688
0.9374	0.6329	9.5718
0.9021	0.6090	9.5635
0.9230	0.6197	9.5527
0.9033	0.6754	9.5724
0.9123	0.7358	9.5856
0.9434	0.7376	9.5712
0.9332	0.6891	9.5700
0.9589	0.6449	9.5712
0.9487	0.6490	9.5144
0.9416	0.6287	9.5647
0.9194	0.6455	9.5521
0.9302	0.6161	9.5527
0.8991	0.6784	9.5850
0.8991	0.7220	9.5461
0.9200	0.7131	9.5892
0.9326	0.6849	9.5724
0.9637	0.6293	9.5587
0.9649	0.6664	9.5449
0.9296	0.6215	9.5742
0.9296	0.6365	9.5455
0.8877	0.6526	9.5952
0.8782	0.7059	9.5802
0.8967	0.7143	9.5509
0.9332	0.6706	9.5772
0.9499	0.6604	9.5766
0.9817	0.6251	9.5557
0.9583	0.6479	9.5688
0.9380	0.6688	9.5449
0.9529	0.6425	9.5521
0.8931	0.6981	9.5934
0.9105	0.6903	9.5365
0.9117	0.6951	9.5796
0.9212	0.6706	9.6065
0.9314	0.6030	9.5611
0.9918	0.6640	9.5509
0.9290	0.6353	9.5892
0.9607	0.6748	9.5300
0.9200	0.7041	9.5868
0.9045	0.6766	9.5748
0.9015	0.6891	9.5306
0.8728	0.6622	9.5856
0.9314	0.6604	9.5868
0.9476	0.6126	9.5742
0.9996	0.6281	9.5557
0.9266	0.6760	9.5868
0.9493	0.6999	9.5533
0.9081	0.7250	9.5976
0.8764	0.6580	9.5934
0.9152	0.6778	9.5288
0.9224	0.6526	9.5958
0.9374	0.6227	9.5784
0.9912	0.6090	9.5449
0.7908	0.6383	9.5688
0.9673	0.7244	9.5407
0.9188	0.7131	9.5832
0.9182	0.6580	9.5970
0.8865	0.6544	9.5240
0.8806	0.6993	9.5401
0.9045	0.6790	9.6125
0.9487	0.5719	9.5503
0.9595	0.6586	9.5407
0.9374	0.6766	9.5700
0.9499	0.7107	9.5587
0.9284	0.7077	9.6275
0.8991	0.6550	9.5766
0.7693	0.7059	9.5467
0.9380	0.6526	9.6185
0.9224	0.6018	9.5629
0.9793	0.5994	9.5288
0.9302	0.6694	9.5814
0.9565	0.6676	9.5581
0.9135	0.6945	9.5868
0.8818	0.6748	9.5748
0.9021	0.6945	9.5401
0.9057	0.7029	9.5958
0.8931	0.6347	9.5437
0.9541	0.6018	9.5013
0.9493	0.6479	9.5605
0.8955	0.6502	9.5700
0.9428	0.6628	9.5826
0.9218	0.6969	9.5718
0.8961	0.6963	9.5647
0.9093	0.7131	9.5826
0.9529	0.6443	9.5946
0.9290	0.6084	9.5647
0.9888	0.6209	9.5671
0.8931	0.6317	9.5946
0.9661	0.6736	9.5533
0.8668	0.7304	9.6017
0.8907	0.7172	9.5784
0.9290	0.7089	9.5677
0.9224	0.6766	9.5772
0.9691	0.6018	9.5694
0.9607	0.6042	9.5533
0.9422	0.6293	9.5623
0.9188	0.6981	9.5617
0.8865	0.6909	9.5940
0.9458	0.6969	9.5647
0.9182	0.6736	9.5635
0.9787	0.6275	9.5766
0.9541	0.6401	9.5970
0.9386	0.5880	9.5760
0.9434	0.6981	9.5706
0.8877	0.6825	9.5778
0.9505	0.6825	9.5647
0.8740	0.7232	9.5988
1.0678	0.6532	9.5186
0.9476	0.6443	9.5970
0.8979	0.6628	9.6293
0.9595	0.6353	9.5569
0.9452	0.6796	9.5808
0.9117	0.6802	9.5970
0.9834	0.6664	9.5407
0.9039	0.6831	9.5958
0.8949	0.6443	9.5772
0.8877	0.6610	9.5539
0.9158	0.6449	9.5742
0.9452	0.6485	9.5641
0.9374	0.6419	9.5252
0.9906	0.6179	9.5605
0.9356	0.6837	9.5653
0.9135	0.6897	9.5904
0.8608	0.7202	9.5886
0.9051	0.6802	9.5509
0.7705	0.6640	9.6017
0.9817	0.6191	9.5988
0.9446	0.6126	9.5306
0.9673	0.6574	9.5754
0.8937	0.6784	9.6053
0.8841	0.7310	9.5521
0.8638	0.7454	9.5928
0.8919	0.6485	9.5138
1.0020	0.6227	9.5808
0.9900	0.6233	9.5928
0.9308	0.6102	9.5485
0.9422	0.6760	9.5659
0.8488	0.6999	9.6029
0.9434	0.6963	9.5940
0.8764	0.6921	9.5910
0.9733	0.6389	9.5270
0.9703	0.6120	9.5982
0.9709	0.6502	9.5754
0.9009	0.6568	9.5455
0.8883	0.6999	9.5694
0.9021	0.6622	9.5503
0.9577	0.6969	9.5736
0.9308	0.6915	9.5736
0.9458	0.6742	9.5060
0.9416	0.6329	9.5934
0.9218	0.6646	9.6041
0.9027	0.6700	9.5413
0.9422	0.6323	9.5389
0.9212	0.6640	9.5641
0.9314	0.7143	9.5659
0.9194	0.6969	9.5569
0.8746	0.6802	9.5712
0.9404	0.6502	9.5318
0.9781	0.6239	9.5677
0.9404	0.6592	9.5814
0.9260	0.6257	9.5497
0.7974	0.7029	9.5820
0.8674	0.7041	9.6227
0.9332	0.6730	9.5940
0.9057	0.6574	9.5491
0.9828	0.6161	9.5665
0.9499	0.6604	9.5599
0.9721	0.6538	9.5467
0.8459	0.6604	9.6071
0.9458	0.6820	9.5629
0.8644	0.6616	9.5970
0.9487	0.6903	9.5880
0.9332	0.6490	9.5162
0.9661	0.6473	9.5473
0.9487	0.6305	9.6059
0.9081	0.6586	9.5856
0.8901	0.6520	9.5324
0.9218	0.6604	9.5826
0.8734	0.7113	9.5605
0.9613	0.6837	9.5682
0.9158	0.6550	9.5647
1.0008	0.6490	9.5007
0.9398	0.6718	9.5724
0.9230	0.6359	9.6287
0.8806	0.6802	9.5419
0.9129	0.6951	9.5904
0.8435	0.7178	9.6209
0.9846	0.6580	9.5431
0.9224	0.6419	9.5635
0.9996	0.6383	9.5455
0.9380	0.6903	9.5138
0.9392	0.6245	9.6173
0.9164	0.6233	9.6185
0.8770	0.7029	9.5282
0.8997	0.7149	9.6125
0.9434	0.6437	9.5820
0.9158	0.6335	9.5497
0.9840	0.6156	9.5712
0.9338	0.6784	9.5521
0.9410	0.6299	9.5539
0.9027	0.6975	9.6143
0.8393	0.6963	9.5108
0.8847	0.7424	9.5934
0.9152	0.6544	9.5832
0.9984	0.6120	9.5174
1.0146	0.5892	9.5096
0.9350	0.6939	9.5174
0.9129	0.6700	9.5617
0.8728	0.7178	9.6215
0.8758	0.6508	9.5653
0.9033	0.6730	9.5533
0.9852	0.7029	9.5754
0.9673	0.5916	9.5066
1.0385	0.6221	9.5383
0.8548	0.7089	9.5892
0.9338	0.6885	9.5371
0.8823	0.6700	9.6454
0.8841	0.6622	9.5449
0.9027	0.7035	9.5222
0.9344	0.6927	9.6424
1.0552	0.5629	9.5246
1.0457	0.5988	9.4935
0.8788	0.7220	9.6245
0.9613	0.6999	9.5060
0.8674	0.6676	9.5898
0.8399	0.6622	9.6041
0.9314	0.7119	9.4971
0.9039	0.6114	9.6568
0.9559	0.5844	9.5030
1.0062	0.6108	9.4408
0.8704	0.7531	9.6341
0.9517	0.7256	9.5013
0.8644	0.6401	9.5928
0.9260	0.6999	9.5647
0.9093	0.6574	9.4863
0.9487	0.6467	9.6227
0.9619	0.5821	9.5641
0.9470	0.6341	9.4905
0.9158	0.7340	9.6191
0.8943	0.7442	9.5635
0.9051	0.6269	9.5324
0.9404	0.6981	9.5742
0.9123	0.6616	9.5533
0.9840	0.6209	9.5814
0.9583	0.6592	9.5766
0.9595	0.6263	9.4923
0.8991	0.7484	9.6544
0.8776	0.7005	9.6143
0.9063	0.5922	9.5539
0.9464	0.6963	9.5718
0.9356	0.6526	9.5671
0.9840	0.6233	9.5994
0.9296	0.6646	9.6155
0.9523	0.6556	9.5204
0.9069	0.7017	9.6640
0.8823	0.7286	9.5970
0.9188	0.6269	9.4815
0.9392	0.6496	9.5706
1.0086	0.6556	9.5312
0.9344	0.5994	9.6454
0.9194	0.6885	9.5587
0.7717	0.6999	9.4606
0.8578	0.6879	9.6508
0.9152	0.6999	9.5880
0.9517	0.6030	9.5413
0.9087	0.6897	9.5976
0.9864	0.6502	9.4743
0.8662	0.6239	9.6586
0.9308	0.6395	9.6203
0.9027	0.7280	9.5090
0.9081	0.6766	9.6490
0.9511	0.7244	9.4325
0.9721	0.6239	9.5114
0.9679	0.6628	9.6460
0.9679	0.6227	9.4600
0.8584	0.6227	9.7058
0.9200	0.7561	9.4827
0.8453	0.6772	9.6257
0.9422	0.6855	9.6693
0.9751	0.6425	9.4091
0.9649	0.5623	9.6364
1.0008	0.7406	9.4971
0.8913	0.6796	9.6077
0.8363	0.7005	9.7184
0.7687	0.7484	9.4785
0.8333	0.5934	9.6813
0.9589	0.6802	9.5150
1.0265	0.6102	9.4456
0.9571	0.6538	9.6065
1.0062	0.7149	9.4564
0.8578	0.6490	9.7651
0.8812	0.6999	9.6490
0.8931	0.6909	9.5162
0.8357	0.6688	9.7088
1.0816	0.6610	9.4486
0.9565	0.5426	9.5748
0.9870	0.6837	9.5784
0.9541	0.7651	9.4863
0.7729	0.6479	9.7166
0.9464	0.7484	9.5144
0.8734	0.6275	9.6400
0.9458	0.6377	9.6155
1.0516	0.6245	9.4360
0.9087	0.6138	9.6394
1.0140	0.7567	9.4701
0.8871	0.6718	9.6275
0.8853	0.6622	9.6221
0.9607	0.7035	9.4923
0.8518	0.5779	9.6251
1.0917	0.6790	9.5156
0.8853	0.6090	9.5808
0.9757	0.6562	9.5467
0.8566	0.7699	9.5204
0.8782	0.6526	9.6670
0.9338	0.6688	9.5635
0.9757	0.6263	9.5659
0.9123	0.6544	9.5910
0.9852	0.7328	9.5138
0.9152	0.6102	9.6526
0.9356	0.6915	9.5419
0.8028	0.6622	9.5736
0.8010	0.6945	9.5276
1.0552	0.6293	9.5102
0.8704	0.6221	9.6747
1.0181	0.6640	9.5120
0.8925	0.7567	9.5880
0.8961	0.6975	9.5473
0.9930	0.6496	9.5324
0.9003	0.6203	9.6233
0.9787	0.6413	9.4971
0.8297	0.7143	9.6143
0.9314	0.6670	9.5114
0.8500	0.6502	9.5754
0.9607	0.6461	9.6053
0.9326	0.6706	9.5300
0.9667	0.6502	9.6047
0.9266	0.7454	9.6454
0.9200	0.6544	9.6346
0.9015	0.6532	9.5533
0.9230	0.6269	9.5347
0.9302	0.6227	9.5718
0.9440	0.7370	9.5042
0.9314	0.6239	9.5772
0.9284	0.7178	9.5467
0.9511	0.7053	9.5419
0.8698	0.7059	9.5533
1.0235	0.6485	9.5306
0.9242	0.5868	9.6532
0.9679	0.6024	9.5276
0.8967	0.7406	9.5533
0.8620	0.7352	9.5521
1.0092	0.6688	9.5994
0.8859	0.6365	9.6520
1.0128	0.6215	9.5156
0.8835	0.7113	9.5449
0.9721	0.6455	9.5324
0.8985	0.6610	9.6807
0.9176	0.7095	9.5952
0.9260	0.6682	9.5820
0.9164	0.6808	9.5712
0.9763	0.6227	9.4911
0.9499	0.6335	9.5647
0.9206	0.6102	9.6406
0.8345	0.7801	9.5467
0.9003	0.7424	9.5910
0.9840	0.6407	9.5934
0.9978	0.5976	9.5910
0.9805	0.6126	9.5796
0.9182	0.7155	9.4271
0.8524	0.6903	9.6131
0.8835	0.7178	9.6143
0.8985	0.5402	9.6418
0.9482	0.6718	9.5712
0.9505	0.6598	9.4791
0.9733	0.6191	9.5581
0.9565	0.6700	9.5677
0.8692	0.7484	9.6311
0.8728	0.7376	9.5198
0.9308	0.6760	9.6065
1.0636	0.5988	9.5264
1.0492	0.5019	9.6000
0.8602	0.6610	9.5832
0.9930	0.7896	9.4558
0.8285	0.7699	9.6341
1.0582	0.5916	9.6155
0.8997	0.6377	9.6568
0.9392	0.6664	9.4534
0.9344	0.6963	9.5724
0.8165	0.6586	9.6191
0.8901	0.5797	9.5324
0.8847	0.6987	9.6125
0.9661	0.7262	9.4091
0.9170	0.7023	9.5162
1.0157	0.6126	9.6281
0.8961	0.6604	9.6221
0.8979	0.7382	9.5437
0.8901	0.7172	9.5784
0.9757	0.5946	9.5383
0.9834	0.5318	9.6221
0.9715	0.6449	9.5264
0.8453	0.8088	9.5419
0.9117	0.7322	9.5599
0.9422	0.5414	9.6909
0.9864	0.5480	9.6275
0.9763	0.6963	9.5024
0.9565	0.6831	9.5342
0.8584	0.7884	9.5844
0.9254	0.5497	9.6801
0.8812	0.6443	9.5024
0.8985	0.7119	9.4737
1.0050	0.6939	9.5653
0.9511	0.5216	9.5994
0.9278	0.6945	9.5922
0.8465	0.7992	9.5300
0.9553	0.7723	9.5712
1.0110	0.5994	9.6221
1.0534	0.4654	9.6173
0.9416	0.5910	9.6646
0.7902	0.8369	9.4791
0.8351	0.7454	9.5497
0.9673	0.5791	9.6287
0.9541	0.6329	9.5353
1.0020	0.6060	9.5551
0.9254	0.7854	9.5234
0.8740	0.6760	9.4815
0.8207	0.5928	9.6598
0.9194	0.7208	9.5880
0.9691	0.7495	9.5162
1.0391	0.6066	9.5437
0.9200	0.5486	9.5330
0.8644	0.6963	9.4887
0.8219	0.7932	9.6161
0.9003	0.7172	9.5342
0.9942	0.5402	9.6520
0.9763	0.5109	9.5353
0.9751	0.7795	9.4175
0.7866	0.8255	9.5910
0.9194	0.6455	9.6257
0.8267	0.5791	9.5892
1.0486	0.6293	9.6006
0.9021	0.7119	9.5922
0.9350	0.6748	9.4893
0.8644	0.6951	9.5694
0.8321	0.6108	9.5629
1.0594	0.7962	9.6191
0.9948	0.6215	9.5479
1.0839	0.6018	9.7387
0.8291	0.7346	9.3876
0.8016	0.7759	9.5431
0.8417	0.6915	9.6035
0.8979	0.6778	9.5694
1.1007	0.4283	9.6466
1.0032	0.7376	9.5473
0.8261	0.8100	9.5330
0.8931	0.5940	9.6855
0.8273	0.6425	9.6478
1.0510	0.6221	9.4636
1.0600	0.7711	9.6239
1.0534	0.6419	9.6436
0.9404	0.6108	9.5820
0.8465	0.4493	9.6000
0.7316	0.8393	9.3810
0.9194	0.5832	9.5066
1.0492	0.6712	9.7154
0.9727	0.6144	9.5557
1.0905	0.7035	9.7094
0.8704	0.6622	9.4558
0.8841	0.5892	9.6376
0.9523	0.5809	9.5820
0.7974	0.8399	9.5234
0.8835	0.6939	9.5162
0.8979	0.6054	9.6813
0.8931	0.6251	9.4037
1.1037	0.6167	9.6520
0.8159	0.7448	9.6364
0.8136	0.6999	9.5599
0.9422	0.6167	9.6352
0.8417	0.7836	9.5162
1.0516	0.6353	9.4199
1.1168	0.5133	9.6275
0.9667	0.6090	9.5156
0.8429	0.7890	9.3810
0.8249	0.6526	9.6813
0.7525	0.5809	9.7238
1.1067	0.5139	9.5288
1.0953	0.7585	9.6598
0.8704	0.7567	9.5234
0.9446	0.7083	9.4432
0.8357	0.5922	9.6556
0.9685	0.6114	9.5306
0.9793	0.7639	9.5682
0.9129	0.5940	9.6472
0.9266	0.6742	9.5700
0.9404	0.7484	9.4672
0.9015	0.5444	9.6442
0.8991	0.5641	9.5982
1.0187	0.6963	9.4031
0.8853	0.7495	9.5013
0.9057	0.7531	9.6095
0.9254	0.7561	9.3547
0.9655	0.4259	9.8111
0.9834	0.6981	9.6287
0.8154	0.7866	9.4977
0.7944	0.5809	9.7016
0.9135	0.6861	9.4349
1.0325	0.7023	9.3463
1.0935	0.5456	9.8093
0.9075	0.7765	9.5677
0.9051	0.5797	9.7962
0.7143	0.6078	9.5653
0.7005	0.6951	9.3702
1.0277	0.5270	9.5479
1.0552	0.7352	9.6873
1.0307	0.8028	9.3840
0.9637	0.6897	9.6113
0.6975	0.6718	9.3954
0.8417	0.5085	9.4737
1.0038	0.7675	9.7166
0.8309	0.8136	9.7118
1.0337	0.5593	9.4815
0.8782	0.6024	9.5425
0.9260	0.5611	9.2835
0.9081	0.7537	9.6239
0.6915	0.8907	9.6053
0.9284	0.7274	9.6071
1.0020	0.6431	9.5288
1.0373	0.6580	9.5461
1.0618	0.5402	9.4654
0.9063	0.8261	9.4319
0.7711	0.7968	9.4827
0.8728	0.5964	9.7728
0.9691	0.5456	9.5730
1.0098	0.5115	9.7136
0.8841	0.8477	9.3846
0.7442	0.7902	9.5234
0.9434	0.5186	9.5461
1.0253	0.7226	9.3517
1.1480	0.5276	9.6508
0.9523	0.8207	9.7046
0.8040	0.7340	9.4414
0.8572	0.5497	9.6687
0.6239	0.6861	9.4217
0.9218	0.4582	9.5252
1.1946	0.5916	9.6598
1.0044	0.8040	9.3475
1.0504	0.7908	9.5168
0.7262	0.6538	9.5748
0.8381	0.5641	9.6012
0.9565	0.7747	9.5389
0.8524	0.8309	9.6921
1.0768	0.7035	9.3912
1.0690	0.6114	9.6927
0.9493	0.3805	9.6795
0.8279	0.7430	9.6209
0.6156	0.6963	9.4845
0.9248	0.7454	9.6556
0.9972	0.7495	9.2632
1.1599	0.3894	9.9206
1.0295	0.6281	9.5557
0.8596	1.0104	9.4372
0.9398	0.6030	9.4253
0.8782	0.8405	9.4253
1.1156	0.2806	9.6658
1.1037	0.6461	9.7148
0.8159	0.8620	9.6849
0.7412	0.5755	9.4630
0.6138	0.6556	9.3302
1.0157	0.5617	9.5635
1.1456	0.7448	9.8674
0.8871	0.8034	9.6550
0.9757	0.7011	9.6670
0.6951	0.6502	9.3218
0.7519	0.5683	9.5324
1.0391	0.6167	9.6891
0.9565	0.8596	9.6125
1.2054	0.6287	9.5030
0.9266	0.6879	9.6251
0.9302	0.4146	9.5826
0.8907	0.6843	9.5599
0.7298	0.7717	9.5407
0.9182	0.7172	9.4277
1.0612	0.6060	9.6358
1.2802	0.5103	9.5647
1.0002	0.8064	9.5964
0.6365	0.7489	9.5515
0.6796	0.7155	9.3948
0.8207	0.8459	9.2345
1.0875	0.2883	9.9284
1.2646	0.5922	9.5126
0.9458	0.8381	9.7028
0.7669	0.5486	9.3631
0.5797	0.8303	9.2709
0.8710	0.1789	9.8691
1.0175	0.5761	9.6502
1.1001	0.9404	9.6717
1.0080	0.7561	9.4803
0.8776	0.7196	9.3361
0.9888	0.5378	9.5210
0.8979	0.6825	9.7579
0.9129	0.7819	9.5138
1.0403	0.7759	9.7172
0.8662	0.5438	9.4480
0.9852	0.4062	9.7005
0.7113	0.5803	9.5677
0.7962	0.8387	9.6209
0.9296	0.8728	9.4827
1.0026	0.4259	9.8668
1.1731	0.4122	9.6299
0.9613	0.8967	9.3421
0.7501	0.8530	9.3230
0.9661	0.9529	9.3140
1.0146	0.4516	9.7387
1.3478	0.3583	9.8428
0.8788	0.8130	9.7130
0.5336	0.5587	9.4480
0.6825	0.8112	9.2895
0.7932	0.4594	9.5192
1.2939	0.3912	9.8045
1.1438	0.9254	9.6831
0.8991	0.8494	9.5671
0.7980	0.8901	9.2871
0.7256	0.4869	9.5665
0.9224	0.5312	9.6556
0.9846	0.8979	9.5844
1.0169	0.7101	9.6723
0.8991	0.5647	9.3577
1.0319	0.4714	9.6179
0.6114	0.6562	9.5706
0.7202	0.8177	9.4008
0.8794	0.7513	9.6376
1.1755	0.5204	9.5144
1.1928	0.5731	9.6969
0.9625	0.6694	9.6119
0.6849	0.9260	9.4642
0.8883	0.8058	9.3643
0.8776	0.4187	9.5832
1.2269	0.3547	9.7567
1.0098	0.7741	9.6185
0.7472	0.8213	9.5336
0.7992	0.7256	9.2333
0.8309	0.4528	9.6107
1.1204	0.3870	9.6933
1.0666	1.0157	9.8273
0.7071	0.7202	9.5940
0.8907	0.6915	9.2051
0.7555	0.5061	9.3744
1.0062	0.5635	9.5904
1.1402	1.0265	9.5024
1.0151	0.7298	9.7483
1.0744	0.7011	9.4325
0.7729	0.3996	9.5509
0.7023	0.6395	9.4468
0.8435	1.1186	9.2931
0.8859	0.6353	9.7627
1.2144	0.4110	9.5587
0.9918	0.4301	9.7028
0.7962	0.8136	9.4731
0.5946	0.9703	9.3990
0.8417	0.7795	9.6831
1.0774	0.3284	9.5611
1.2155	0.4762	9.7890
1.0169	0.7681	9.5629
0.6778	1.0199	9.4061
0.8112	0.6640	9.3451
0.7813	0.2429	9.5060
1.1922	0.3966	9.6640
0.9649	0.9278	9.6460
0.9464	0.9679	9.4002
0.8955	0.5916	9.3296
0.7292	0.4391	9.7142
1.0469	0.4720	9.6370
0.8261	0.8488	9.7639
1.0325	0.6927	9.5192
1.0193	0.6335	9.4420
0.8387	0.5049	9.6430
0.8967	0.6120	9.5473
0.6837	1.0068	9.6101
1.0379	0.6700	9.5413
1.0666	0.5390	9.5736
0.9906	0.4911	9.6490
0.8435	0.8829	9.4474
0.8297	0.9254	9.4797
0.8931	0.4498	9.4133
1.3675	0.4702	9.7100
1.0510	0.6634	9.8237
0.7280	0.6999	9.6305
0.6580	0.9170	9.1692
0.7292	0.5109	9.4546
1.1659	0.3141	9.7351
1.0953	0.7914	9.8231
1.0020	0.8345	9.5318
0.8297	0.8626	9.1495
0.7238	0.4008	9.4337
0.9625	0.5139	9.4707
0.9099	0.7824	9.7980
1.0762	0.8052	9.7304
0.9703	0.6209	9.4474
0.8548	0.3894	9.4929
0.8818	0.7035	9.4115
0.7160	0.7980	9.6269
0.9547	0.6371	9.6885
1.1378	0.5509	9.8153
0.8632	0.5641	9.5623
0.9033	0.7789	9.4450
0.8159	0.9834	9.5138
0.9876	0.3069	9.4037
1.1605	0.3523	9.7615
0.9152	0.6927	9.6006
0.9386	0.9302	9.4025
0.5025	0.8883	9.4695
0.8680	0.3141	9.4151
1.0098	0.2931	9.7459
0.9392	0.8189	9.5904
1.0875	1.0810	9.4570
0.7956	0.7615	9.4869
1.0475	0.3996	9.5808
0.8608	0.5372	9.7387
0.9009	0.8477	9.5641
1.0923	1.0008	9.5162
0.8506	0.4247	9.6472
1.0385	0.3164	9.3804
0.7902	0.7178	9.5790
0.8070	0.7334	9.4343
1.0469	0.7525	9.5988
1.1252	0.1783	9.7375
1.1497	0.8237	9.4307
0.6718	0.8620	9.6167
0.8070	0.9416	9.3296
1.1378	0.6395	9.6586
0.9721	0.2171	9.9188
0.7884	0.7466	9.5007
0.5258	0.9224	9.3068
0.8530	0.8363	9.3750
0.9822	0.2560	9.8141
1.1755	0.3332	9.9984
1.0768	1.0869	9.4695
0.7484	0.9601	9.3427
0.8483	0.6520	9.4360
1.0104	0.4857	9.5754
1.0373	0.4295	9.7920
1.1982	0.9404	9.4755
0.7543	0.7609	9.5030
1.1240	0.3715	9.4540
0.6556	0.6598	9.6305
0.7131	0.5438	9.4534
0.9320	1.0002	9.2620
0.8698	0.4397	9.7262
1.3615	0.6921	9.5240
0.6825	0.8297	9.6131
0.9009	0.8471	9.4701
0.9164	0.7023	9.4480
0.8165	0.1220	9.8494
1.1797	0.9398	9.3726
0.6341	0.7190	9.6969
0.8818	0.7950	9.0795
0.9769	0.6239	9.3577
1.3591	0.4068	9.8344
1.0510	1.0265	9.6813
0.5910	0.7166	9.8404
1.0702	0.8770	9.3888
0.7340	0.2800	9.7280
0.9158	0.5162	9.5138
1.1246	1.1198	9.5234
0.6353	0.8010	9.7944
1.1641	0.3488	9.4331
0.5976	0.5719	9.6987
0.9631	0.7789	9.1854
1.0648	1.0606	9.7603
0.9673	0.3817	10.0097
1.5386	0.5958	9.3529
0.6066	0.5844	9.7286
1.0463	1.1085	8.9611
0.8662	1.1276	9.4851
1.1994	-0.0371	10.3208
0.9338	0.5647	9.6101
0.5898	0.5850	9.9421
0.8034	1.0606	8.9563
0.6855	0.6281	9.7489
1.1013	0.1645	9.8668
0.9410	0.7711	9.5856
0.6060	0.8931	9.9738
1.1073	1.1904	9.0987
0.6867	0.4929	9.7758
1.0750	0.5725	9.5533
1.0594	0.6814	9.5635
0.7388	0.7460	9.5605
1.2191	0.7137	9.2769
0.5844	0.3811	9.7824
1.0845	0.6951	9.4121
0.5922	0.5551	9.4211
1.0821	0.3272	9.4642
1.1055	0.6185	9.5521
0.7819	0.7095	9.4025
1.0008	1.3549	9.2398
0.6341	0.4810	9.5180
1.3226	0.5139	9.2650
1.0205	0.6245	9.9080
0.9392	0.7609	9.3152
0.8632	1.3137	9.3583
0.4301	0.1651	9.6658
1.0738	0.4714	9.3062
0.6640	0.4002	9.8781
0.9123	1.0122	9.1950
1.0217	0.9715	10.0408
1.0546	0.1310	9.7328
1.3753	0.9966	9.0496
0.7220	0.5928	9.9003
1.0660	0.8399	9.3236
1.0325	0.6718	10.0731
0.9601	0.2572	9.5910
1.0780	1.0128	9.2297
0.5037	0.3649	9.7884
1.2054	0.6790	9.3373
0.8453	0.4235	10.1748
1.0552	0.6592	9.5371
0.6682	1.2173	9.2817
0.7621	0.4654	9.7136
1.2425	0.4594	9.5982
0.7525	0.7322	10.0450
1.0427	1.1785	9.2470
0.6203	0.6479	9.6065
0.9248	0.3912	9.5395
1.1527	0.5294	9.5324
0.9984	0.6221	9.8159
0.8782	0.9458	9.2967
0.7729	0.4475	9.4995
0.7968	0.6150	9.7082
0.8381	0.4594	9.3942
1.0690	0.9386	9.4133
1.2676	0.7681	9.5515
1.1677	0.5055	9.7860
0.9152	0.8076	9.5742
0.5551	0.7304	9.6610
0.8004	0.7083	9.6071
0.8243	0.2112	9.7998
1.0744	0.6538	9.5491
0.9966	0.9087	9.5958
0.7783	0.9404	9.2536
1.0032	0.5204	9.4917
1.0151	0.3667	9.9379
1.0546	0.7113	9.4295
0.5767	1.0660	9.3367
1.0953	0.8339	9.3080
0.9553	0.2937	9.7154
1.0385	0.4917	9.5216
1.0810	0.8028	9.6568
0.5719	0.6425	9.7106
1.1013	0.5354	9.3032
0.3559	0.7920	9.5778
1.0235	0.6927	9.4420
0.8423	0.8291	9.8985
1.3591	0.5450	9.5204
1.1396	0.8913	9.6227
0.8459	0.7125	9.2153
0.8919	1.1480	9.3379
0.6664	0.0156	10.0408
1.3573	0.5964	9.5449
0.8159	0.8794	9.7896
0.9523	0.6903	9.1340
0.8704	0.5127	9.8033
0.9799	-0.0670	9.6281
1.2018	0.8955	9.2847
0.6748	0.5611	9.7848
1.0744	0.9942	9.4378
0.8070	0.3757	9.7369
0.8100	0.5515	9.4462
0.9482	0.7998	9.3284
0.7777	0.8393	9.7064
1.3190	0.5767	9.6406
0.7938	0.4899	9.5467
0.9918	1.3795	8.8384
0.4923	0.7460	9.3230
0.9775	0.2578	9.7800
0.9517	0.4134	10.0785
0.9948	0.7950	9.3296
0.8291	1.1318	9.3583
0.7256	0.3087	9.5868
1.3501	0.7501	9.5318
0.8237	0.2022	10.1682
0.9649	1.2526	9.2709
0.6437	1.0899	9.5449
0.9230	0.3691	9.5545
1.0349	0.3176	9.5970
0.9649	0.6179	9.5712
1.1886	1.0750	9.3876
0.7765	0.3428	9.6915
0.9685	0.9942	9.2919
0.5898	0.4205	9.6370
0.9482	0.4528	9.5814
1.0409	0.5940	9.6963
1.0313	0.5258	9.5336
1.0660	1.0833	9.3385
0.8788	0.7268	9.6687
1.0331	0.8088	9.4366
0.9027	0.2518	10.2658
0.9392	0.6855	9.3487
0.5611	1.0923	9.3188
0.8764	0.5480	9.5772
1.0995	0.4140	9.4055
1.0714	0.6072	9.8010
1.1862	0.9769	9.4193
0.6287	0.6640	9.5988
1.0433	0.8094	9.2805
0.5725	0.6359	9.6658
1.2126	0.2937	9.5802
1.1133	0.7388	9.6119
1.1491	0.3081	9.6053
1.0445	0.7998	9.5036
0.7705	0.7107	9.4935
1.0026	0.9350	9.3122
0.8118	0.0879	10.0438
1.0887	0.5222	9.7669
0.6933	1.3286	9.4175
0.8297	0.8453	9.7663
0.8207	0.4929	9.4678
1.0175	0.4648	9.6616
0.8967	0.7932	9.6604
0.7753	0.8578	9.5222
0.8668	0.6365	9.3936
0.9661	0.3254	9.5958
1.0923	0.5103	9.3254
1.0337	0.8967	9.5928
1.1061	0.4708	9.6670
1.2556	0.5916	9.7375
0.7460	0.6897	9.6843
0.9236	1.1192	9.1148
0.8189	0.6568	9.5300
1.1127	-0.0120	9.7310
1.0020	0.6808	9.8596
0.6066	0.9769	9.7214
0.6891	1.0540	9.2542
0.7155	0.5785	9.3816
1.1994	0.4690	9.6807
1.2012	0.7065	9.6012
1.0905	1.4973	9.4666
0.8596	0.6030	9.8512
0.9344	0.3523	9.6275
1.0014	0.7412	9.4845
0.8435	0.4714	9.4672
1.1270	0.6185	9.5491
0.6156	0.6921	9.8506
1.0696	0.8668	9.2147
0.6090	0.7968	9.7794
1.2508	0.4612	9.3834
1.0439	0.7065	9.8901
1.0534	0.4217	10.1509
0.7765	1.1779	9.6293
0.7813	0.6688	9.4809
1.0720	0.4822	9.6341
1.0612	0.0640	9.6699
0.9170	1.1587	9.6329
0.9308	0.6574	9.8841
0.8171	0.5689	9.5252
0.8620	0.7753	9.4911
0.9164	0.5372	9.8321
1.0971	0.7615	9.3511
0.8734	0.8465	9.5318
1.1545	0.7525	9.3667
0.7902	0.6592	9.4259
1.0337	0.6389	9.6687
0.9464	-0.1507	10.0187
0.8841	0.5186	9.4917
0.9152	1.0558	9.1621
0.6185	0.8746	9.2386
1.0445	0.1729	9.7663
0.9595	0.3960	9.9517
1.2724	1.2933	9.3894
0.6359	1.0845	9.7830
0.8985	0.6616	9.3996
0.9517	0.5222	9.5886
0.8542	0.3057	9.8147
0.9852	0.9380	9.4660
0.6682	0.8716	9.7968
1.3920	0.4026	9.7154
0.6544	0.4582	9.7788
1.0827	1.0439	9.3750
0.8901	0.6915	9.6101
1.2837	0.0060	9.6215
1.0780	0.8159	9.7740
0.7501	0.5803	9.5036
0.9326	1.2784	9.1806
0.8483	0.2776	9.5880
1.1109	0.5976	9.5922
0.7585	0.5480	9.8291
0.9404	1.1629	9.4731
0.7388	0.7035	9.6269
0.7771	0.3009	9.7782
1.2383	0.7394	9.3613
1.0247	0.7992	9.5856
1.3304	0.7513	9.6532
0.6419	0.6335	9.8117
0.9894	0.9392	9.2715
0.6389	0.4415	9.6550
1.1844	0.2016	9.4474
0.8895	0.9290	9.7663
0.9206	0.6150	9.6646
0.7705	0.9577	9.4450
0.8913	0.2219	9.5120
1.1725	0.6927	9.4827
0.9715	0.5497	9.7393
1.0116	1.0929	9.4965
0.7878	0.3846	9.8063
1.0050	0.3906	9.2691
0.9739	1.0744	9.3308
0.8829	0.6736	9.5659
1.0839	0.5480	9.6891
0.7956	0.4020	10.0235
0.8925	1.1174	9.2967
0.4857	0.6981	9.4827
1.1198	0.5438	9.4528
0.9912	0.2674	9.7322
1.2018	0.5151	9.8877
0.9296	1.1725	9.2799
0.7555	0.8064	9.4145
1.1115	0.2447	9.6346
1.0277	0.3601	10.0654
1.0463	1.1055	9.6472
0.9793	0.7765	9.8039
0.8243	0.2040	9.5563
0.8471	0.8441	9.4360
0.7131	0.5091	9.7686
1.0481	0.9805	9.6047
0.9290	0.6287	9.8327
0.9781	0.7908	9.5946
0.7466	0.7573	9.5198
1.0361	1.0355	9.4606
1.0816	0.2883	9.6580
1.0588	0.1860	9.6580
0.8835	1.1037	9.3613
0.7412	0.6939	9.3667
0.9147	0.4804	9.3212
0.7525	0.4104	9.7250
1.1252	0.8447	9.2889
0.7884	0.8058	9.7262
1.0708	0.6706	9.4229
0.7071	0.8303	9.5001
0.8626	0.4738	9.5072
0.9392	0.9613	9.4354
0.9224	0.2321	9.7854
1.2054	0.6754	9.5581
0.7681	0.6873	9.5886
0.6610	0.8453	9.4636
0.7962	-0.0431	10.0791
1.0792	0.4361	9.7878
1.1575	1.0289	9.4115
0.9057	0.7621	9.7848
1.3083	0.5204	9.5629
0.7920	0.8106	9.6933
1.2179	0.8608	9.4468
0.6502	0.8423	9.6370
1.1593	0.5994	9.6448
0.6479	0.5312	10.0821
1.0313	0.6108	9.3260
0.5821	1.3609	9.3966
0.6963	0.2495	9.6532
1.2490	0.3272	9.7142
0.9649	0.9458	9.6765
0.9338	1.1384	9.1549
0.5450	0.4756	9.3589
0.9254	0.5509	9.4612
0.9248	0.3948	9.5706
1.0774	0.7627	9.6598
1.2197	0.8847	9.4145
0.7430	0.5707	9.4366
1.0217	0.6485	9.2877
0.6550	0.6610	9.4079
1.2945	0.6048	9.6113
1.0433	0.2321	10.2311
0.9954	0.8159	9.6311
0.6209	0.9583	9.3260
0.6227	0.4720	9.6155
0.9882	0.4636	9.6358
0.7824	0.7854	9.7758
1.3047	0.9075	9.5994
0.7436	0.6257	9.6789
1.0851	0.7842	9.1675
0.6144	0.5426	9.8697
1.0965	0.5180	9.4360
1.1491	0.8740	9.6520
1.3681	0.2847	9.7357
1.0606	0.8740	9.5467
0.4445	0.8435	9.4277
0.9194	0.4917	9.1603
0.7789	-0.0227	9.6484
1.1521	1.1378	9.5497
0.9218	1.1940	9.6759
0.8494	0.6096	9.5563
1.1282	0.7268	9.3679
0.5240	0.6221	9.5186
0.9930	0.8369	9.3499
0.7513	1.0020	9.6628
1.1025	0.4540	9.6711
0.8518	0.5916	9.6676
0.9081	0.9284	9.1878
0.8596	0.7244	9.3780
1.3304	-0.1400	9.7986
1.0522	0.6885	9.8488
0.8004	0.7687	9.5144
0.8494	0.8740	9.5790
0.7669	0.2572	9.5994
1.0666	0.6831	9.4612
0.8835	0.3643	9.9601
1.2126	1.0199	9.5228
0.8512	0.6975	9.6293
0.8913	0.6921	9.6263
0.8584	0.7160	9.4695
0.9123	0.6879	9.6568
1.2132	0.4953	9.9290
0.7633	0.7238	9.5419
0.9212	0.9930	9.1998
0.5970	0.3272	9.6209
1.1880	0.2596	9.3870
0.7896	0.7388	9.7274
1.2173	0.6730	9.5425
0.9254	0.8375	9.8339
0.9338	0.4684	9.3272
0.8835	0.8159	9.6149
0.9470	0.4839	9.3529
1.2227	0.8847	9.5880
1.0863	0.1340	9.9690
1.1904	1.1186	9.2279
0.3972	1.0780	9.3236
0.8477	0.6179	9.5192
0.8267	0.1262	9.9858
1.1025	0.8010	9.7178
0.8518	1.0546	9.5623
0.6556	0.4421	9.5934
1.0594	0.9428	9.2662
0.5569	0.6389	9.8518
1.2933	0.6658	9.5324
0.8889	0.8859	9.6592
1.0582	0.5270	9.5413
0.7537	0.8841	9.6305
0.6203	1.0564	9.2273
1.0445	0.5892	9.3708
1.2514	-0.0634	9.6209
1.2401	1.1605	9.5940
0.5755	0.7579	9.5096
0.8638	0.6215	9.7094
0.4648	0.4044	9.6502
0.8638	0.7573	9.3673
0.7238	0.5198	9.6873
1.1611	0.8566	9.4271
0.7717	0.9422	9.6017
1.0098	0.6132	9.1896
1.0146	1.2443	9.4977
0.7382	0.0993	10.1539
1.1850	0.4911	9.8404
0.7160	0.7184	9.5306
0.8823	0.8010	9.1782
0.5755	0.0419	9.5443
1.1168	0.5025	9.4420
1.0959	0.7579	9.4271
0.9721	0.5773	9.8021
1.1127	0.5862	9.5084
0.6568	0.6544	9.4037
0.7896	0.9272	9.2614
0.9027	0.8686	9.4343
1.4052	0.4768	9.7160
1.0295	0.3649	9.8386
1.1934	1.1180	9.0849
0.2656	1.3370	9.2620
0.7334	0.2746	9.7980
0.4750	0.4475	10.3064
0.8776	0.7149	9.5150
1.0223	1.0098	9.6352
1.0098	0.2189	9.4833
1.1031	1.0199	9.6903
0.7914	0.2207	9.6693
1.3472	0.8028	9.6406
0.9093	0.4379	9.5665
1.2778	0.5689	9.5413
0.7669	0.7783	9.3756
1.1186	0.9972	9.3577
0.8483	0.1310	9.8033
1.2556	0.2148	9.6999
0.7047	1.2646	9.5162
0.8710	0.3649	10.0618
0.6634	0.6772	9.9828
0.5444	0.9081	9.5138
0.8704	1.0600	9.4432
0.8776	0.3176	9.5048
1.3932	1.0271	9.6448
0.7489	0.7394	9.6119
0.9685	1.0032	9.3673
0.7478	0.6981	9.4121
1.1958	0.2094	9.8434
1.1683	0.4911	9.4552
1.0445	1.0481	9.6753
1.0678	0.4217	9.7322
0.9667	0.1747	9.3128
0.9984	1.1013	9.1196
0.9571	0.5222	9.7914
1.3340	0.5629	9.9391
0.5844	0.8453	9.7728
0.8219	1.1324	9.4516
0.3667	0.7501	9.2039
1.0738	0.5815	9.6137
0.7418	0.4881	9.9391
1.3777	0.9021	9.3912
0.7735	1.0905	9.3613
0.9152	0.4498	9.6873
0.7095	0.5354	9.6382
0.8800	0.5013	9.2207
1.1527	0.8979	9.7274
1.0606	0.0167	9.8231
1.3561	1.0905	9.6233
0.7789	0.6239	9.3290
1.1797	0.4570	9.6843
0.6419	0.3057	9.6269
0.7854	0.7537	9.8321
0.5384	0.3930	9.4432
1.0558	0.9464	9.6149
0.4857	0.7160	9.2446
1.2616	0.9009	9.0191
0.9069	1.0827	9.4857
1.3812	0.7501	9.6945
1.0014	0.5832	9.7280
0.6742	1.4554	9.1280
0.5563	1.2030	8.7457
1.0391	0.0479	9.5276
1.0768	0.5599	9.8099
1.0690	0.6042	10.0348
1.3382	0.6467	9.5509
0.6616	0.5689	9.0909
0.7711	0.9296	9.4289
0.6939	0.0431	10.0402
1.3137	0.7495	10.3124
0.8046	0.4935	9.5425
1.1719	1.1707	8.9019
0.6431	1.0307	9.1627
1.2837	0.1172	10.4871
0.9936	0.1513	10.1006
1.0116	0.9834	9.5563
0.3697	1.0498	8.9820
0.9123	0.2764	9.6131
0.5641	0.8315	9.5862
1.3346	0.6359	9.8620
1.1635	0.8333	9.4917
1.2173	0.5826	9.4893
0.7143	1.0331	9.7130
0.9763	0.8698	9.3056
0.9398	1.2209	9.6496
1.1689	-0.0993	9.8428
1.0235	0.9278	9.1974
0.8835	1.0654	9.2727
0.8082	0.5946	9.8614
0.7017	0.1507	9.7794
0.7166	0.8746	9.5353
1.0032	0.4044	9.3595
1.2484	0.5312	9.7824
0.8698	0.8165	9.4247
0.9242	0.9930	9.5850
0.9272	0.6197	9.5413
1.4590	0.3685	9.8620
0.7830	0.4169	9.8141
1.1324	1.0181	9.4037
0.4642	1.0134	9.3798
0.9404	0.2453	9.9732
0.6036	0.6024	9.5485
0.9188	0.8704	9.9415
0.6766	0.0706	10.0097
1.0839	0.5605	9.5449
0.4433	1.2245	9.1872
1.0008	0.2812	9.7932
1.1420	0.3691	9.5042
1.1342	0.5892	10.0247
0.7214	0.8483	9.3397
1.0259	0.9428	9.5808
0.4869	0.3003	9.4594
1.1587	0.3912	9.2739
0.6802	0.7310	9.4014
1.1575	0.5791	10.0863
0.8082	0.2704	9.6957
0.8590	1.3346	9.2225
0.4415	1.0923	8.9754
1.1820	-0.1334	10.0402
0.9715	0.7711	9.8183
1.0205	0.9452	9.7148
0.5551	0.7747	9.2530
0.8955	0.5073	9.4570
0.7771	0.5521	9.5288
1.3495	0.5545	9.7788
1.1210	0.9093	9.6376
0.9912	0.4235	9.7387
0.8494	1.2185	9.0299
0.8142	1.0594	9.0819
1.3262	-0.0108	9.9248
1.1258	-0.0945	10.2562
0.7406	1.1426	9.5814
1.0618	0.8847	9.4396
0.5587	0.4487	9.2075
0.7663	0.5844	9.3469
0.7651	0.7950	9.6257
1.3053	0.4558	9.9637
0.8961	1.0146	9.5898
0.7896	1.1414	9.1962
0.8303	0.7783	9.0113
1.3310	0.1848	9.8823
0.8800	0.2734	9.9864
0.9787	1.2825	9.3924
0.3817	1.1228	9.3391
0.7896	0.0287	9.4492
0.7424	0.6885	9.3541
1.2090	0.6778	9.8177
1.2257	0.2997	9.7890
1.2084	0.7376	9.3547
0.4929	1.1216	9.0508
1.0397	0.3781	9.8093
0.8488	0.2656	9.6837
0.9655	0.5970	9.7716
0.5713	0.9619	9.4187
1.0157	0.6748	9.5892
0.7944	0.5103	9.5575
1.2502	0.6496	9.2943
0.8692	1.0522	9.5437
1.0247	0.5904	9.8949
0.7412	0.7172	9.5766
0.4498	1.4207	9.4331
0.5994	0.6550	9.5443
1.3160	-0.0299	10.3357
1.1838	1.0965	9.6622
1.1318	1.0157	9.4121
1.0486	0.5689	9.2973
0.4504	0.2070	9.5312
0.6084	0.2973	9.3427
1.1958	0.4510	9.6837
0.8387	0.5306	9.4217
1.3029	0.7160	9.1968
0.7513	1.4171	8.7864
1.3328	0.2441	9.6622
0.9966	-0.2094	10.0366
0.9332	1.1127	9.4073
0.6443	0.9350	9.4301
0.8859	0.4774	9.4462
0.3499	0.9918	9.5132
0.8004	0.8363	9.7357
0.6473	0.4744	9.8039
0.9972	0.6820	9.7447
0.5198	1.1019	9.3912
0.8698	0.9087	9.4331
0.8171	0.5551	9.4516
1.2335	0.1496	10.0127
1.1533	0.6640	9.5294
1.2604	0.6114	9.7274
1.0361	0.0353	9.4133
1.3531	0.7962	9.3391
0.6299	0.6652	9.3846
1.3651	0.1143	10.2137
0.8506	0.3117	9.8751
0.7292	1.1468	9.4839
0.5426	0.6766	9.4510
0.9882	0.7531	9.7148
0.8991	0.8142	9.9003
1.1025	1.0092	9.7160
0.6132	0.9607	9.6430
0.6150	0.7053	9.9643
0.4427	1.0032	9.4139
0.6401	1.3250	9.2829
0.8524	0.0030	9.5090
1.3956	0.2082	10.0265
0.8303	0.9350	9.0843
1.3561	0.7011	9.2590
1.1468	0.0054	9.5724
1.1934	1.0433	9.7214
0.9948	0.4498	9.7507
1.4237	0.2853	10.0540
0.7388	0.2895	9.6257
0.8064	0.9380	9.4630
0.9655	0.8309	9.2596
1.1139	0.4552	9.8093
1.1497	0.5892	9.6317
0.6401	1.5440	9.6167
0.6221	0.7083	9.8632
0.4905	0.8124	9.6562
0.6802	1.0104	9.2321
0.9876	1.1324	9.6305
1.1844	0.1394	9.8111
1.1749	1.0451	9.6652
0.6694	0.9583	9.1190
0.9607	0.8040	9.4468
1.1444	0.0239	9.6658
1.2742	0.5701	9.4869
1.3143	0.6419	9.6897
1.0451	0.5964	9.5054
1.0205	0.2566	9.1076
0.6293	0.7507	8.9712
0.7938	0.3129	9.6293
1.1067	0.0808	9.9804
1.1515	1.0792	9.2177
0.5186	1.5828	9.2016
0.9164	0.4774	9.3948
0.6951	0.8542	9.5928
0.7484	0.7424	9.4444
0.6048	0.7651	9.7190
0.9930	0.5127	9.7112
0.5695	1.2185	9.1531
0.6341	1.0140	9.2919
0.9464	0.5180	9.7070
1.2299	0.0688	10.2753
0.7878	0.9051	9.5108
1.0445	0.9350	9.1914
0.6837	0.0897	9.2207
1.3448	0.3924	9.3990
1.0397	0.8764	9.4624
1.6774	-0.1089	10.1970
0.9876	0.1974	9.6801
0.8159	1.0343	9.3361
0.6114	0.7573	9.2895
0.9015	0.3864	9.8476
0.6706	0.9272	9.6909
1.0205	1.0175	9.6329
0.9416	0.8441	9.9822
0.7681	0.8369	9.9673
0.3637	1.0445	9.4325
0.7633	1.2999	9.5808
1.0337	0.3314	9.7322
1.2401	0.7950	9.8751
0.6084	0.9344	9.4343
1.0953	0.2704	9.9409
1.2012	-0.0479	9.6759
0.8871	0.6837	9.3684
1.4201	0.1208	9.3834
1.5087	0.2028	9.9655
1.2885	0.6502	9.5850
0.8500	1.1192	9.1956
0.9667	0.5557	9.3547
0.9745	0.5653	9.9936
0.8201	0.8698	9.4761
0.6293	1.5978	9.8781
0.5228	0.4098	9.6753
0.6909	1.3274	9.2386
0.2943	1.3597	8.9575
1.1456	0.5396	10.0773
1.1222	0.0138	10.3405
0.9805	1.2419	9.4953
0.8441	0.8273	8.9754
0.9158	0.4175	9.1447
1.0582	0.3775	9.3487
1.0391	0.6036	9.4761
1.6666	0.0706	9.8632
1.0696	0.3350	9.7310
1.0486	0.7513	8.9856
0.8590	0.9727	8.9754
1.0774	0.2548	9.9206
1.0337	0.6395	9.9044
0.4642	1.5828	9.6634
0.6072	0.8806	10.1539
0.7412	0.3565	10.0031
0.2225	1.1396	9.2889
0.8154	1.0313	9.3673
1.1414	0.3308	9.6047
1.2981	1.1348	9.8835
0.6167	0.8321	9.5359
1.0863	0.3356	9.8380
0.6921	0.1950	9.5952
1.0636	0.4373	9.3535
1.1761	0.3314	9.2721
1.4447	0.1902	9.8482
1.4297	0.5240	9.3320
1.0122	1.3848	9.2979
1.0181	0.4636	9.7298
0.9278	0.2483	9.8883
0.8554	1.0134	9.5617
0.5809	1.1156	9.7974
0.7669	0.2423	9.5623
0.6455	1.8048	9.4588
0.5312	1.2652	8.7559
1.1677	0.6042	9.7274
0.8477	0.2441	10.1688
0.8291	0.9876	9.8913
0.8829	0.7125	9.5288
0.7346	0.4660	9.4163
1.0349	0.1394	9.1950
1.0594	0.9398	9.1268
1.5093	-0.0652	9.8620
1.5087	0.0335	10.0301
1.2096	1.3065	9.1818
0.9649	1.2024	8.9036
0.9523	0.1298	9.5102
0.8411	1.0038	9.6646
0.7119	0.8405	10.0522
0.6616	0.7519	9.8871
0.5139	0.6179	9.3308
0.2195	1.0457	9.1064
0.8100	0.7896	9.7369
0.7472	0.6957	9.7435
1.2586	0.6066	9.6352
0.6502	1.1934	9.2213
0.9912	0.6114	9.7058
0.9057	0.0903	9.8386
1.2951	0.7669	9.4935
1.1731	0.3661	9.6831
1.6277	-0.1848	10.0193
0.9990	0.6658	9.5952
0.8584	0.9206	9.3128
0.6473	0.2746	9.5545
0.6329	0.4941	9.8075
0.8949	0.8698	9.4725
1.0618	1.2562	9.7507
0.7460	0.7765	9.6436
0.7801	0.9858	9.6329
0.5832	1.4590	9.3188
0.5599	1.0283	9.9092
0.9739	-0.1418	10.1001
0.7992	1.2090	9.6909
0.7950	0.9141	9.5300
1.0827	0.2512	9.3738
1.0223	0.2339	9.3092
1.1037	0.4439	9.1782
1.4189	0.0748	9.7387
1.5117	0.3870	9.4731
1.3430	0.8919	9.2201
1.0510	1.1306	8.7918
1.2084	0.7047	9.4486
0.7322	0.1908	9.8279
0.9858	0.8076	9.6801
0.2800	1.0594	9.4396
0.7172	0.3141	9.4139
0.2722	0.9129	9.2769
0.4152	1.1629	9.3996
0.6688	0.6814	10.0157
1.1097	0.4481	10.2616
0.7472	1.1444	9.7459
1.1665	1.0325	9.2781
1.0738	0.4301	9.2596
1.1731	0.3577	9.7232
1.1701	0.3984	9.6454
1.4153	0.6114	9.9858
1.3573	-0.1890	10.0755
1.0349	0.8177	9.6681
0.5497	0.6383	9.2004
0.9374	0.2734	9.9972
1.0032	0.2489	9.8333
0.8016	1.1480	9.6263
0.8740	0.5103	9.6191
1.0917	0.7926	9.3840
0.6060	1.4255	9.2572
0.5581	1.0199	9.3290
1.0929	0.7525	9.8614
0.8165	0.6796	9.9308
0.9428	1.0600	9.2751
0.4666	0.9242	9.0466
0.9559	0.2560	9.7615
1.1192	0.3386	9.6323
1.0768	0.9356	9.6879
1.1761	-0.0688	9.9338
1.1850	0.2393	9.9708
0.7968	0.8638	9.0586
1.0875	0.6676	9.3487
1.3250	0.1759	9.7208
1.1408	1.2389	9.6006
0.9864	0.9637	9.4127
0.7077	0.7370	9.7824
0.6048	0.4379	9.7866
0.5186	0.8764	9.5192
0.8088	1.1091	9.1986
0.9254	0.5904	9.7232
1.1438	0.5551	9.6867
0.7232	1.2784	9.4462
0.8776	0.5390	9.5934
1.0373	0.0437	9.7824
1.1725	1.1354	9.6335
1.3430	0.7334	9.3714
1.5260	0.3625	9.7447
0.8871	0.3224	9.8865
0.5474	0.7430	9.5527
0.8279	0.3577	9.6275
0.6975	0.1884	9.5766
0.9266	0.7370	9.3116
0.8315	1.3591	9.2865
1.2221	0.5850	9.6819
0.9517	0.4774	9.8584
0.8590	1.5428	9.3397
0.9458	0.4205	9.5605
1.3555	0.0867	9.8309
0.5192	0.9900	9.5802
0.7777	1.0827	9.2829
0.9440	0.4205	9.8237
0.5438	0.5013	9.7011
0.9218	0.6036	9.2255
0.9063	0.6239	9.9110
0.9272	0.2596	9.8560
0.8004	0.9960	9.3350
1.0576	1.3980	8.9365
1.3005	0.3164	9.7776
1.4871	0.3924	10.0654
0.7292	1.2084	9.8093
1.0038	0.8841	9.8063
0.8423	0.1041	9.7866
0.7896	0.7495	9.4773
1.0564	0.7059	9.5198
1.3286	0.3984	9.7537
0.8429	0.5695	9.6693
0.5958	0.8500	9.3242
1.0217	0.7561	9.6358
1.0481	0.1555	9.9834
1.2132	0.8536	9.5940
0.7561	1.4231	9.3714
1.0756	0.7196	9.6664
0.8291	0.5294	9.5928
0.4558	0.9105	9.4713
1.0845	0.3033	9.6550
1.0935	0.1884	9.7447
0.9141	1.0845	9.2805
0.8818	0.7998	9.4133
1.2215	0.8052	9.5186
0.9691	0.2949	10.0558
1.0756	0.8040	9.8081
0.7747	0.8405	9.4965
0.9709	0.3153	9.6143
0.8985	0.9727	9.1669
0.4917	0.9470	9.2662
1.2395	0.2752	9.8075
1.1336	0.2578	9.8207
0.8189	1.0534	9.3738
0.6461	0.6688	9.9541
0.9117	0.6688	9.7274
0.8590	0.7866	9.6227
0.9763	0.7149	9.8087
1.2048	0.6287	9.3906
1.2347	0.6012	9.6125
0.8835	1.1174	9.2763
0.6688	0.5563	9.6502
1.0391	-0.0550	9.9332
1.0702	0.5946	9.5730
0.5922	0.9212	9.3870
0.8441	0.1717	9.5473
0.9278	0.7573	9.4815
0.7232	0.7956	9.2351
0.8243	0.4624	9.7052
1.3071	0.5348	9.9050
1.1653	1.1055	9.4349
1.1797	1.3340	9.4301
0.8572	0.6909	9.7465
1.2263	0.4869	9.8500
0.7633	1.0008	9.6012
0.4409	0.5677	9.7154
0.6425	-0.2758	9.9529
0.6688	0.9912	9.4031
1.0026	0.6915	9.1226
1.2066	-0.0012	9.6723
1.3328	0.7633	9.4576
0.9284	1.2658	9.4223
1.1198	0.6580	9.8177
0.9709	0.4158	9.8512
1.0092	0.8327	9.4307
1.3071	0.9793	9.4540
0.8064	0.4965	9.6299
0.7095	0.7848	9.5054
0.4498	1.0002	9.5347
0.7280	-0.0018	9.8925
0.7238	-0.6490	10.2999
0.8847	1.0947	9.5503
0.6688	1.4883	8.9946
0.8542	0.8351	9.3996
1.1964	1.1372	9.2913
1.1390	0.8429	9.7980
1.6373	-0.0909	10.2418
0.9194	0.5109	10.1623
0.6957	1.5936	9.0921
0.6245	1.2395	8.8295
0.5767	0.0700	9.3577
1.0558	0.0485	9.9649
0.8925	1.2802	9.7040
1.1414	0.4594	9.4719
0.7047	0.3422	9.8500
0.9320	1.1988	9.2745
0.9075	0.9009	9.3607
1.4333	0.0712	9.7710
1.0786	1.3083	9.7776
0.7657	1.4680	8.9108
1.2275	0.0191	9.5407
0.7699	-0.3589	10.1760
0.7035	0.6161	9.8027
0.6969	1.0786	9.9475
0.6161	0.1555	9.3427
0.5593	1.2419	9.1220
1.1139	1.3483	9.3367
1.6630	-0.3176	10.5152
1.3262	0.0610	10.1042
0.9858	2.1051	9.4037
1.0385	1.1456	9.3080
0.8524	-0.1298	9.4193
0.6891	0.8584	9.4827
0.9182	0.5994	9.4785
0.9505	-0.2154	9.7112
0.1609	0.7525	10.0755
0.7525	1.2425	9.2416
1.0445	0.4600	9.3505
1.1007	-0.2195	9.6275
1.0217	1.3322	9.5013
0.8046	1.7916	9.0173
1.0552	0.3709	9.8494
1.3083	0.4056	9.6484
0.8088	1.2610	9.2380
1.1521	0.1621	10.0223
0.9870	0.4092	9.9649
0.1340	1.0929	9.0628
0.9380	0.5689	9.4331
1.3029	-0.2506	10.1545
0.4397	0.5749	9.6693
1.1133	1.8646	9.2093
0.7944	1.1551	10.0007
0.8806	-0.0353	9.8015
1.0899	1.2287	9.2656
1.2473	0.5659	9.6364
1.2347	-0.3027	9.7782
0.7525	1.4369	9.4019
0.8506	1.3478	8.9898
1.0409	-0.0628	9.3379
0.6060	0.0162	9.5527
0.7513	1.1210	9.3068
0.9290	0.4798	9.8458
0.7573	0.2321	9.9912
1.0128	0.7370	9.4522
1.3543	1.2772	9.3044
1.0977	0.1059	9.9302
1.2508	1.2808	9.5084
0.5952	1.7234	9.3804
1.0038	0.4253	9.7208
1.1838	-0.3254	9.8841
0.4086	0.7190	9.5712
0.5581	0.9751	9.4319
0.7220	0.5486	9.8608
0.6353	0.8255	9.4055
1.0271	0.7190	8.9431
1.0774	0.6837	9.9894
1.0917	0.6843	9.6592
0.7830	1.4710	8.8558
1.2634	0.9637	9.3684
1.5559	-0.1681	10.1096
1.1270	0.6897	10.1240
1.0235	1.4506	9.4354
1.1073	0.4158	9.4791
0.6909	0.2369	9.4761
0.3858	0.3828	9.5940
0.9446	0.0491	10.3483
0.8327	0.5886	9.9631
0.4265	1.2885	8.8672
1.0953	1.3830	8.8785
1.3083	0.1507	10.1012
1.2508	0.9033	10.0295
0.9344	1.7569	9.5694
0.9129	1.0002	9.4414
0.9362	0.3368	9.1710
0.4259	0.4205	9.5724
1.0439	0.0084	10.0169
0.7328	0.2130	9.7980
0.5916	0.6437	9.3391
0.9051	0.8937	8.9150
1.1264	-0.1310	9.6945
1.2802	0.5856	9.7507
0.8082	1.4147	9.5228
0.8877	1.2544	9.6825
1.2909	0.4827	9.6227
1.0337	0.8159	9.5958
1.0708	0.5450	10.1509
0.9523	0.1454	10.1312
0.7065	1.4088	9.3152
0.7519	0.9499	8.9593
1.3304	-0.2554	9.7830
0.9846	0.4570	9.8171
0.9218	0.9942	9.4319
1.1719	1.0475	9.4217
1.0253	0.0766	10.0325
1.1216	0.5139	9.6430
0.8375	0.6760	10.2191
0.8339	-0.1113	9.8315
0.7830	1.1055	9.4402
0.3559	0.9619	9.5234
1.3328	-0.1525	9.9774
1.1049	1.0486	9.5072
0.6772	1.1503	9.1836
1.1156	0.9170	9.5401
0.7920	0.1155	10.0725
0.8213	0.3876	9.8416
0.9487	1.2191	9.8721
0.8004	0.1944	9.7363
0.9900	0.9607	9.4570
0.6401	1.1474	9.5001
1.2389	-0.3314	9.9966
0.7711	1.2096	9.4277
0.3392	1.2640	9.1100
1.1091	0.5832	9.4797
1.0810	0.2961	10.0426
1.0923	0.3159	9.8991
1.2383	1.0744	9.9230
0.9900	0.3679	9.8177
0.7974	0.7364	9.4713
1.0098	0.8082	9.3900
0.9374	-0.1023	10.0139
0.8650	1.1695	9.8201
0.4169	1.4776	8.8588
0.8148	0.7149	9.5694
1.2024	0.1848	9.6448
0.3918	0.6772	9.4157
0.9727	1.0792	9.6101
0.9751	0.3464	9.7423
0.6778	0.9045	9.5856
1.1049	0.7400	9.2075
0.8040	-0.0006	9.2793
0.8297	0.9595	9.2351
0.7065	1.1689	8.8241
1.1300	0.4798	9.5587
1.6696	0.1478	9.8703
0.9033	0.7406	9.3750
1.0277	1.0732	9.7292
1.1252	0.0096	10.0833
0.6861	0.5444	9.8273
1.0092	1.1007	9.2668
0.9811	0.0969	9.5192
0.7705	1.2891	9.4396
0.5803	1.0163	9.1567
1.1139	0.4552	9.6041
1.0636	0.4678	10.0534
0.6383	0.8471	9.4713
0.9900	1.0403	9.8482
1.3059	-0.1507	10.0193
1.0415	0.3643	9.4636
0.8429	1.2526	9.3469
1.1168	0.3272	9.8721
1.0792	1.0439	9.8051
0.9152	1.2849	9.2081
1.1725	0.4983	9.6113
0.9338	0.6903	10.0337
0.4301	1.2233	9.1567
1.0020	0.8189	9.6095
1.0612	-0.0120	9.4791
0.7244	0.4080	9.3290
0.6921	1.6289	9.1190
0.7250	-0.0341	9.6436
1.1001	0.3308	9.7005
1.0229	1.3525	9.2703
1.1509	0.4768	9.9003
1.1826	0.6616	10.1306
0.7346	0.7950	9.5342
1.4656	0.4325	9.7316
1.0157	0.3254	10.0271
0.5438	0.8566	9.4235
0.6957	1.5589	9.3451
0.9505	-0.2100	9.7585
0.8716	0.0796	9.5144
0.6395	1.5715	9.1214
0.9673	0.1866	9.7758
1.2263	0.1442	9.7686
0.8052	1.2461	9.3415
1.2939	0.4223	9.7746
1.0307	0.5426	9.9541
0.5797	1.0821	9.5718
1.1988	0.6598	9.4917
1.0714	0.1705	9.8991
0.4750	0.6532	9.4378
0.7178	1.6869	8.9479
0.5162	0.0766	9.8506
1.0146	-0.2267	9.8177
0.8542	2.0919	9.5844
0.9248	0.6670	9.1387
0.8584	0.3745	9.5844
0.8602	1.1456	9.4061
0.9308	0.5055	9.3750
1.0648	0.2100	9.8458
0.4445	1.0816	8.8456
0.9428	0.8656	8.5046
1.3388	-0.0580	9.7034
0.6024	0.3763	9.8668
0.8734	1.6044	8.9623
0.9966	-0.0084	9.7232
1.0953	-0.6114	10.0205
0.4546	1.5673	9.9038
1.0062	0.8859	9.4953
1.0570	-0.0072	10.0570
1.0516	0.9356	9.6185
0.6939	1.2526	8.9754
1.2431	0.2267	9.7848
0.9547	0.8381	9.6855
0.6718	1.4417	8.9437
0.9248	-0.0341	10.0701
0.8859	0.3033	10.0456
0.4714	1.1779	9.6460
1.3394	0.2465	9.5772
1.0869	-0.5641	10.0187
0.4762	0.9942	9.3266
1.0014	1.1061	8.8402
1.0792	-0.5139	10.1174
1.0199	1.3579	9.6167
0.8405	1.7874	8.5447
0.9745	-0.2536	9.7184
1.1372	0.8716	10.0624
0.3266	1.5200	9.3960
1.2479	0.1705	9.9140
0.7597	0.6042	9.8374
0.3147	1.2885	9.1136
1.3274	0.8261	9.2715
0.9135	-0.3805	10.1288
0.6885	0.9182	9.5593
0.6951	1.5272	9.0987
0.8100	-0.3637	9.6257
0.9745	1.0827	9.4737
0.9212	0.9751	8.3802
1.1623	-0.2447	10.0528
1.2784	1.1127	10.0516
0.8225	1.1701	9.0897
1.6175	0.2028	9.5413
0.9111	0.4385	9.8476
0.5043	1.1713	9.3314
1.2658	0.8022	9.8422
0.5180	-0.0502	9.6975
0.5198	0.9248	9.3786
0.5940	1.2676	9.2703
1.1192	-0.5252	9.5042
1.0181	0.4600	9.7028
1.2030	1.3059	9.3122
1.0403	0.4498	9.4115
1.0349	0.9781	9.6424
1.2718	1.0146	9.1208
1.1318	0.5366	9.6400
1.1653	0.6550	9.7992
1.1928	1.1497	9.5766
1.2114	0.2136	9.7704
1.0636	0.1884	10.1898
0.4175	1.1659	9.6017
0.6221	0.1615	9.8512
1.0086	0.1687	10.1844
0.4092	0.8728	9.5001
0.7639	0.9499	8.8851
1.1246	0.7842	9.5473
0.9242	0.8171	9.3523
1.3633	1.2634	8.9916
1.0307	0.8674	9.7800
0.7759	0.5844	9.8129
0.8907	0.9374	9.5772
0.9703	0.3045	9.9553
0.8752	0.2818	9.7956
0.7178	0.8477	9.2847
1.0415	0.3224	9.8482
1.2036	0.0233	9.8841
0.7155	1.1916	9.2931
1.1145	1.2185	9.0143
1.2090	0.5575	10.1318
1.2616	0.8901	9.8763
0.8913	1.4853	9.1794
0.8100	0.7824	9.8865
0.8375	0.8746	9.5982
0.1908	0.8351	9.7154
0.9051	0.3643	9.5706
0.7340	0.5659	9.6795
0.1759	0.4600	9.3553
1.6307	0.5719	9.5533
0.8524	0.6078	9.6358
1.0606	0.4205	9.0424
1.7886	1.6540	9.6735
0.9141	0.2004	9.5665
1.3830	0.4857	9.2769
0.9254	1.0534	9.3978
0.6323	0.3141	9.4689
1.1539	0.5366	9.2183
0.7699	1.0038	9.3726
0.6227	0.8124	9.1758
0.6694	0.2650	10.1718
0.5635	0.7484	10.1796
0.8937	0.8650	9.7076
0.6885	0.5491	9.6341
0.8608	0.9631	9.5413
0.9392	0.7866	9.3553
1.5715	-0.5192	10.0785
0.9625	1.0750	9.1286
0.7543	1.3131	8.7086
1.3663	0.0078	9.6867
0.6748	0.3182	8.9485
0.9051	1.1928	8.6434
1.1725	0.4158	9.5036
0.7693	0.2345	9.4396
0.9589	1.3908	9.3511
1.0696	0.7394	9.8721
0.7017	-0.1149	9.8674
0.8554	1.3280	9.6167
0.8590	0.3410	9.8554
0.9499	0.0879	10.0049
0.6718	1.2790	9.7872
0.7842	1.1743	9.5964
1.0762	-0.5055	9.6083
0.6395	0.7729	9.7028
0.7980	1.2951	8.9431
0.9583	-0.0060	9.6789
1.2383	0.7711	9.6406
0.7735	1.3645	8.7134
0.8895	0.2441	9.7543
1.4817	0.3846	10.0498
0.5103	1.1557	9.2536
1.0122	0.7567	9.6927
0.9697	0.5761	9.6029
0.6467	0.7717	9.3918
1.2233	0.8973	9.5479
1.0056	0.1448	9.8524
0.3691	1.4829	9.6520
0.6156	1.3035	9.4827
0.9535	-0.2500	9.5336
1.0175	0.2070	8.9677
0.6993	1.2849	9.1142
1.3585	0.0742	9.7393
1.1791	0.1035	10.4530
0.9200	1.1031	9.7022
1.2377	0.9493	9.3188
1.2825	0.0520	10.2197
1.0654	0.8494	9.9792
0.8788	1.3442	9.5144
0.9105	0.0640	10.3848
0.8901	0.8644	9.8775
0.3864	0.7406	9.4139
0.7998	0.1220	9.7011
0.6772	0.8895	9.9433
0.5157	1.0941	9.2105
1.3208	0.7053	9.7770
1.0540	0.6335	10.2173
0.6999	1.3495	9.5198
1.1013	1.0606	9.9415
1.3424	-0.2740	10.0013
0.6263	0.7525	9.7704
0.8506	0.9870	9.1435
1.4088	-0.3266	10.2376
0.8225	0.0700	10.0414
0.8668	0.9541	9.2925
1.0612	0.3631	9.8422
0.5551	-0.1681	9.8440
0.9972	1.3657	9.5168
1.0092	0.7041	9.7902
1.1450	0.0197	10.1168
1.1204	1.5846	9.4719
1.2700	0.6496	9.3475
1.1916	0.2417	10.0935
0.8381	1.4656	9.5958
0.8351	0.8512	9.3080
1.0355	-0.6957	9.9900
0.5043	0.7765	9.4773
0.7023	1.1904	8.6602
0.8967	-0.3260	9.7453
1.3298	0.5210	10.0582
0.7705	1.6163	8.8073
1.0259	0.4875	9.5730
1.7557	0.3147	9.8925
0.5928	1.2706	9.1040
0.6879	1.1880	9.2189
1.4195	0.5396	10.0917
0.3823	0.4594	9.6382
0.8979	0.8112	8.9575
1.0008	0.2608	9.4689
0.7836	1.0863	9.6472
0.8279	0.9416	8.9186
1.1174	0.4169	9.5120
0.8375	0.5844	9.3595
0.3547	1.1797	8.9294
1.5027	0.6161	9.4151
1.1611	0.1406	9.4103
0.5749	0.8034	9.4474
1.3950	1.2179	9.1770
1.1617	-0.2536	10.1976
0.8877	0.4427	9.7770
0.7322	1.8233	9.2686
0.9817	0.2913	10.1623
1.0080	0.3015	9.5581
0.7507	1.2012	9.4002
1.1629	0.7944	9.5641
0.9422	0.0114	9.9068
0.8847	0.9093	9.8644
1.0409	0.9081	9.3278
0.6897	-0.2339	10.2472
0.8758	1.3262	9.3870
1.0235	1.0038	9.0406
1.2036	-0.1771	9.8195
1.1671	1.3238	9.6520
0.7717	1.4375	9.1238
1.5787	-0.7424	9.7722
0.8596	0.6748	9.5539
0.3272	1.3501	8.6309
1.0486	0.2734	10.1042
0.9290	0.2674	9.9852
0.3470	1.3507	8.6494
0.7962	1.1336	9.6119
1.2317	0.3918	9.9009
0.5133	1.1366	9.1573
0.9661	1.0403	9.3296
1.5553	0.9129	9.7675
0.7783	1.0636	9.7310
0.9828	0.8345	9.0041
1.4578	0.4935	9.4354
0.6161	0.2632	9.5916
0.8124	0.6449	9.1513
1.1533	0.3278	9.8093
0.8441	-0.1184	9.5575
0.7430	1.2149	9.0634
1.1659	0.5288	9.7369
1.5141	-0.1256	9.7292
0.6670	1.1234	9.4241
1.0241	1.8161	8.9120
1.1527	0.1232	9.7034
0.6299	0.3051	9.7645
0.7615	1.3783	9.0855
0.9350	0.8423	9.7830
0.8165	-0.0568	9.9080
0.5318	1.2879	9.1070
0.9087	0.5761	9.6257
1.3005	-0.0060	9.8339
0.6772	1.1037	9.3631
1.0756	1.0552	9.3218
1.1719	0.3846	9.5772
0.7382	1.0080	9.4325
1.2999	1.2652	9.3559
1.1318	-0.1071	9.8123
0.5677	0.6556	9.5300
0.6209	1.4393	9.3260
0.8536	0.0203	9.7429
0.8746	0.3057	9.4941
0.4552	1.1647	9.2697
0.9667	0.7178	9.3744
1.2281	0.1932	9.7609
0.7358	1.0965	9.6610
1.1988	1.3627	9.2572
1.0678	0.2979	9.8668
0.9218	0.6790	9.9433
1.0427	1.4088	9.2626
0.8608	0.5288	10.1736
1.0618	-0.1842	10.1353
0.3930	1.0845	10.0689
0.8375	0.5749	9.4522
0.7047	-0.1220	10.2957
0.7334	0.5521	9.6418
1.1874	1.0391	9.2733
0.8734	-0.1675	9.8434
1.3729	1.5864	9.4301
1.1091	1.3705	8.7834
1.0498	0.0694	9.7998
1.2927	0.8297	9.8536
0.7693	1.4315	9.5688
1.3160	-0.1418	9.4731
1.0241	-0.0766	10.3651
0.4355	0.7561	9.5210
0.6263	0.6532	9.3086
0.9015	-0.5940	10.0995
0.8165	1.2084	9.4085
0.5330	1.5099	8.0961
1.1814	0.6993	9.6604
1.8209	0.4708	9.7794
0.8159	1.7503	9.3116
1.4237	1.1067	9.4079
1.4578	-0.1113	10.2376
0.6837	0.7753	9.9056
0.7801	1.0301	9.5282
0.5462	-0.1926	10.0594
0.3625	0.4917	9.6400
0.1789	0.5115	8.8025
0.8584	-0.2136	9.6652
1.0469	0.6790	9.4229
0.6772	1.4512	8.9826
1.6941	0.1184	9.6472
1.5015	0.4546	9.5228
0.9523	1.4967	8.7708
1.6833	0.5509	9.5102
1.6355	0.1077	10.0743
0.5797	1.1689	9.1519
0.6604	1.3101	9.2458
1.0337	-0.5234	9.6825
0.3278	0.9027	9.3463
-0.1478	1.0786	9.3212
1.0917	0.6054	9.8350
0.6706	-0.2500	9.6233
0.3697	1.2718	9.5084
1.0738	1.6881	9.2560
1.1587	0.3505	9.8530
0.9834	0.9045	9.7914
1.3621	1.8796	8.8145
1.3370	0.4648	9.9475
1.3615	0.1059	10.0773
0.8177	0.8650	9.9146
1.0899	0.0664	9.7070
0.5707	-0.8010	9.7579
0.5067	0.0849	9.6807
0.7250	0.6144	9.4923
0.7268	-0.0018	9.1447
0.8662	1.4076	9.3726
1.2897	1.3651	8.7912
1.4417	0.8459	9.5162
0.9984	1.4949	9.8099
1.0630	1.5685	9.9361
1.3125	0.4152	9.8763
0.7824	0.3984	9.8841
0.3105	0.8477	9.2961
0.4397	0.6138	9.4564
0.6855	-0.4714	9.5300
0.5444	0.8895	9.8829
0.4307	1.3633	9.3308
1.4399	0.4229	9.5772
1.2712	0.6102	10.4327
0.9900	0.9200	9.3080
1.1258	1.5493	9.3254
1.5870	-0.8106	10.2622
1.2837	0.9212	9.5982
0.8524	1.7001	8.8438
0.9505	-0.3727	9.8805
1.2323	-0.0778	10.2466
0.0233	1.2502	9.0382
0.6694	0.4528	9.8440
0.8500	-0.0574	10.1587
0.6251	0.8572	9.2207
0.6544	1.6020	8.6368
1.2353	0.4851	9.3170
1.4237	0.7920	9.5665
0.7484	1.3675	9.2183
1.4255	1.0666	9.4301
1.1659	0.3093	9.9613
0.9218	0.6550	9.3984
0.7741	0.7107	9.4283
0.7376	-0.1681	9.8781
0.6784	0.7220	9.1531
0.6706	0.7077	9.0556
1.2766	0.1555	9.8087
0.5677	0.9864	9.4480
0.8734	1.2939	9.4073
1.7814	0.5157	9.8117
0.8991	0.7017	9.5802
0.8698	1.3065	9.3906
1.1198	0.9398	9.6221
1.0666	-0.1406	9.9391
0.3834	0.8907	9.2339
0.2794	0.9111	9.2261
0.9182	-0.2154	9.7070
0.6161	0.4798	9.0047
0.2339	0.8734	9.3355
1.5075	1.0642	9.4426
1.2179	0.1884	9.8267
0.7196	1.6881	9.5976
1.4058	2.1529	8.7595
1.1282	0.6700	10.1030
1.3956	0.0144	10.0929
1.0355	1.1300	9.5018
1.2748	0.4229	9.8847
1.1408	-0.2889	9.7519
0.2435	0.6885	10.0109
0.4355	1.1055	8.7571
0.2560	-0.0138	9.6520
0.6048	0.2614	9.9547
0.7149	1.3896	9.5611
0.7262	0.6024	9.6406
1.3071	0.6024	9.6287
1.4895	0.9033	9.4277
1.3286	1.3250	9.2255
1.1803	0.5151	9.8123
1.5487	0.4618	9.6771
0.7184	1.1916	9.4582
0.6191	0.6885	9.2733
0.7406	-0.0132	9.7675
0.6024	0.4869	9.3852
0.5898	0.7543	8.8827
0.8853	0.1585	9.5647
1.1426	0.6993	9.6191
1.0528	1.6845	9.2656
0.8130	0.4774	9.7351
1.4034	0.9637	9.6161
0.7914	1.4477	9.8566
1.2155	-0.2991	10.1006
1.5045	0.1860	9.8004
0.6329	1.0612	9.3026
0.8548	0.3685	9.2919
1.1408	0.1699	9.8237
0.7238	0.6598	9.7160
0.3559	1.5840	9.5264
1.1695	-0.0879	9.9571
1.0026	0.5067	9.5820
0.1310	1.5793	9.2297
1.1067	0.8728	9.3505
1.3699	-0.0562	10.1880
0.5031	0.9487	9.8368
0.9553	1.7402	9.1262
1.2993	0.0431	10.5702
0.8794	0.1860	10.0342
0.5982	1.3208	8.5196
0.9870	0.6999	9.2829
1.2353	-0.3170	8.9677
0.5916	1.1294	9.6759
1.1168	1.4249	8.6781
1.4369	0.1256	9.3116
1.0026	-0.0855	9.4725
0.7573	1.2855	9.2967
0.9685	1.0977	10.0002
1.3316	0.0820	10.0899
0.7412	0.8548	9.8183
0.7555	1.4883	9.5036
1.0385	0.5162	10.0893
0.5180	-0.3936	10.3250
0.8022	1.5709	9.6299
0.4510	0.7250	9.5533
0.5061	-0.0891	9.7806
0.8124	1.2754	9.6496
0.8261	1.2275	9.5551
1.1856	0.7627	10.1982
0.9996	0.5934	10.2017
0.9601	0.6879	9.9188
0.7932	0.7358	9.1734
0.7621	-0.1777	9.5892
1.3555	0.4654	9.2339
0.7938	0.7687	9.1788
0.8692	0.5491	9.2524
1.3914	0.2602	9.9385
0.8279	0.8423	9.4701
0.8010	1.2604	8.7882
0.7364	0.2500	9.6352
1.3914	0.5797	9.7543
0.9482	1.3005	8.9270
0.8650	0.5067	9.5718
1.4680	0.6215	9.8482
0.5599	0.8997	9.6819
0.5168	0.3200	9.8769
0.7160	0.4379	10.0420
0.7101	0.7998	9.5587
0.7107	0.8518	9.0682
1.0289	0.4122	9.2512
1.1426	1.0361	9.4558
1.1569	1.1629	9.6466
1.6684	0.4917	9.7615
0.8297	0.7035	9.6053
0.9912	0.5725	9.6789
1.3154	0.4702	9.3128
0.8273	0.2859	9.8805
1.1892	0.9828	9.5700
0.7041	0.9990	9.3015
0.9003	-0.0574	9.9493
0.4002	0.3828	9.5587
0.2919	1.0331	8.8253
0.8656	0.5025	9.4791
1.0343	0.6903	9.6544
0.7759	1.4716	9.5766
1.1037	1.2060	9.8763
1.3478	0.1639	9.9290
0.9852	0.8405	9.6849
0.7579	1.0810	9.4414
1.3430	0.6646	9.4947
1.1832	0.5210	9.3679
0.3218	0.0999	9.6717
1.0528	1.1641	9.6897
0.8770	-0.2818	10.1054
0.5653	0.0760	9.3439
0.3182	1.6187	8.6847
1.0827	0.6724	9.3003
1.2532	0.4080	9.8093
0.5587	1.1055	9.6693
1.2090	1.3980	9.4689
1.1862	0.2686	9.9792
1.0146	0.3733	9.3738
0.7866	1.3507	9.3457
0.5821	0.8823	9.4295
1.2120	0.1950	9.2362
0.3069	0.4977	9.8554
0.9404	1.3783	9.3667
1.2126	0.4193	9.3200
0.7842	-0.1723	10.1162
1.1450	1.3561	9.6149
0.8309	0.8046	10.2658
1.1503	-0.2931	10.2047
0.8483	0.5755	10.1862
0.8937	1.0104	9.3026
1.3424	0.3846	9.5706
1.0486	-0.2351	10.3728
1.2197	1.2670	9.2321
0.8130	1.2323	9.3050
0.8955	0.1442	9.2662
1.0295	0.4642	9.2404
0.5952	1.1001	9.6006
1.0774	0.8632	10.0498
1.2167	-0.1513	10.3034
0.9230	1.6080	9.4241
0.5856	2.2361	9.1034
0.8668	-0.2321	9.4169
0.7908	0.6437	10.3298
0.1813	1.2329	8.9491
0.7442	0.4032	9.6370
1.3172	-0.3153	10.5852
0.8429	0.7166	9.2721
0.9440	1.0486	9.2835
1.2945	0.1155	9.9212
1.5721	0.4522	9.9625
0.5174	1.2473	9.4971
1.2263	1.1156	9.3930
1.4907	-0.3392	9.8554
0.9464	1.1216	9.1346
0.8255	1.7946	8.3653
1.2389	0.0179	10.0085
1.0774	0.0203	10.0450
0.0790	1.4794	8.9198
0.4845	1.0277	9.5976
0.9386	-0.1597	9.4857
0.2243	1.0768	9.1567
0.5581	1.5380	9.2596
1.6074	0.1950	10.0319
1.5487	0.0933	9.7998
0.7813	1.0839	9.1369
1.2341	0.7609	9.1298
1.4130	0.4325	9.6795
0.5216	0.5611	9.4349
0.8740	1.3818	8.7517
1.1091	0.2614	9.7974
0.7501	-0.2010	9.5090
0.7890	1.1156	9.5192
0.9499	0.6191	9.7328
1.2712	0.0233	9.8159
0.9936	0.9978	10.1473
0.6867	1.4142	9.1645
0.9230	0.5647	9.4331
0.9577	-0.2112	9.7016
0.9117	1.0343	9.4420
0.6335	1.3657	9.3463
1.1336	0.4128	9.2925
0.7603	0.6042	9.5407
0.6574	1.1450	9.2644
0.9051	0.5204	10.2813
0.8949	-0.1436	9.8679
1.1019	1.3202	9.7890
0.6610	1.1085	9.2757
1.3902	0.0778	9.9834
1.2329	0.5593	10.2071
0.8806	0.8333	9.6604
0.9129	0.4313	9.6329
1.0229	-0.2106	9.6927
0.7388	0.9464	9.3248
0.4959	1.1192	9.1579
0.8064	0.4271	9.6466
1.1820	0.5755	10.1186
0.4391	1.2628	9.4187
0.8124	1.1928	9.2279
1.1707	0.0365	9.9332
1.2299	0.8949	9.8261
0.7765	1.9202	9.2249
1.0672	0.0419	10.0959
1.4345	-0.0036	10.5900
0.4271	0.9547	9.2578
0.6359	0.6831	9.4588
1.2897	-0.0718	9.7866
0.9248	0.7262	9.7680
0.6544	1.4393	9.3750
1.2652	0.3051	10.0091
1.4590	0.6772	9.9080
0.5049	0.9380	9.2578
0.6383	1.2999	9.2303
1.5344	-0.0078	9.5653
1.0911	0.6251	9.3445
0.5904	1.9196	8.5274
0.9272	0.6293	9.4313
1.2694	-0.1878	10.4596
0.4917	1.1073	9.7011
0.3894	0.7250	9.7262
1.4794	0.2112	9.5958
0.7328	0.5988	9.1992
0.7035	1.4913	8.8091
1.4112	1.0199	9.7214
1.4136	-0.1765	10.1796
0.6341	1.0851	9.3194
0.5665	1.4794	9.0185
1.4536	-0.0371	9.7884
0.7472	0.5497	9.4612
0.2997	1.2574	8.8791
0.8752	0.8124	9.4869
1.2395	-0.1765	10.1054
0.5503	1.0080	9.0281
0.6203	1.0839	9.2727
1.5834	0.1244	9.3086
0.8823	0.5952	9.3655
0.4163	1.1982	9.2620
1.2473	1.1067	9.6933
1.2640	-0.0640	10.0450
0.5641	0.6897	9.5778
0.6622	1.2042	9.0729
1.2132	0.3541	9.5563
0.9852	0.3039	9.4169
0.3823	1.3603	8.8037
1.1408	0.9063	9.3499
1.1731	-0.0760	9.6305
0.6508	0.5605	8.9144
0.6377	1.5248	8.9060
1.5637	0.3715	9.2105
1.3759	0.8728	9.3469
0.6526	1.2084	9.5946
1.2580	1.1139	10.1210
1.1928	0.1537	10.2053
0.3589	0.1603	9.8847
0.6915	1.1994	8.7966
0.9721	0.3081	9.3744
1.1192	0.4038	8.9874
0.3206	0.9781	9.4666
1.1689	1.0636	9.2297
1.1868	0.1149	10.1736
0.9045	0.4816	9.0329
0.8985	1.5625	9.1208
1.3328	0.4337	9.6855
1.4692	0.6173	9.7716
0.4929	0.3924	9.8177
1.1174	0.7579	9.7196
1.3382	0.1316	9.7567
0.5462	0.0036	9.5359
0.6820	1.3083	9.1005
1.0241	0.4636	9.4331
0.9326	0.2776	10.0743
0.2788	1.1055	9.4217
1.0510	1.0313	9.2542
1.4453	0.3332	9.9810
0.9978	0.5456	9.3972
0.8249	1.0953	9.2327
1.4764	0.3607	9.2267
0.8859	0.8399	9.0376
0.6054	0.4193	9.5282
1.0833	1.0361	10.2789
1.1127	0.5509	9.9439
0.7286	0.2136	10.0031
0.7364	0.7783	8.9814
1.3543	0.8261	9.5371
1.1988	0.7119	9.6490
0.9350	0.7789	9.8099
1.0989	0.5904	10.0181
1.2837	0.3446	10.3208
0.5761	0.3733	9.0646
0.6353	0.4570	9.2823
1.3454	0.7334	9.5270
0.9218	0.8871	9.0939
0.7537	0.8716	9.6681
1.1605	0.4128	9.7950
1.2790	0.6269	9.9092
0.9757	0.8094	9.3900
1.0295	1.0492	9.4863
1.2849	0.7113	9.5359
1.1150	0.7771	10.0121
0.5617	1.0397	9.4504
0.7992	0.3685	9.6634
1.1749	0.1962	9.6197
0.5252	0.6993	8.8725
0.8506	0.6586	9.4522
1.3430	0.5342	9.9469
0.9960	1.0935	9.0640
0.7220	0.8034	9.3020
1.4572	0.5731	9.5419
1.3920	0.5821	9.1543
0.6335	0.8548	9.3661
0.8674	0.8447	9.4127
1.2012	0.2465	10.0971
0.8877	0.7525	9.7399
0.7549	0.9093	9.0006
0.9990	0.5749	9.7818
0.9326	-0.1771	9.8997
0.5270	0.9673	9.3003
0.6598	0.5928	8.9425
1.1665	0.2782	9.5096
1.0217	1.2855	9.2051
0.9105	1.1886	9.0891
1.2885	0.5707	9.6526
1.1198	0.1292	10.0672
0.7304	0.4379	9.4737
0.7890	1.0056	9.3032
1.4118	0.2536	9.6376
0.9577	0.2171	9.9613
0.6233	1.1856	9.2111
0.8554	0.4540	9.7794
0.9296	-0.0993	9.7513
0.5755	0.7017	9.8386
0.5850	1.2580	9.4672
1.2724	0.3212	9.8105
1.4716	0.8171	9.6825
0.6084	1.2323	9.4037
1.1743	0.7932	9.4929
1.3585	0.2465	9.6293
0.4056	0.6897	9.6281
0.5109	1.0911	9.5090
0.9589	0.3888	9.6089
0.6508	0.3428	9.8123
0.6592	0.8967	9.2787
0.7986	0.8142	9.7112
1.0128	-0.0574	10.0241
1.1749	0.7765	10.2089
0.6532	1.2036	9.7274
0.8961	0.2279	9.7914
1.5230	0.4534	9.8512
0.8016	1.0313	9.3290
1.0947	0.9846	9.5114
1.1264	0.1639	10.2993
1.1067	0.0927	10.3298
0.6353	0.9649	9.6317
0.5420	0.3236	9.2805
1.2718	0.2453	9.6352
0.3027	0.7442	9.5665
0.3129	1.0193	9.6843
1.5158	0.3488	10.2436
1.0020	0.4146	10.0319
0.9583	1.7139	9.1597
0.8973	0.8417	9.6101
1.1755	0.9924	9.4857
0.5073	1.2275	9.6442
0.6652	0.6814	9.8015
1.4752	0.4660	9.3774
0.7573	0.0921	9.4773
0.6377	0.5910	9.1716
0.7328	0.8130	8.6703
1.1533	0.4146	9.6167
0.5246	0.4798	9.6335
0.7304	1.1755	9.1746
1.6235	0.2064	9.9044
0.9817	0.2255	9.5467
1.1037	1.0193	9.2799
1.1288	0.3511	9.6747
1.1880	1.0163	9.3684
0.4038	0.9601	9.7220
0.3679	0.5157	9.9266
0.9141	0.9505	9.9218
0.6568	0.4433	9.5617
0.8907	0.5874	9.2638
0.8620	0.9864	9.1417
1.1653	0.8764	9.7130
0.5121	0.8082	9.9529
0.8614	0.6335	10.2293
1.2102	0.0281	10.0588
0.7980	0.5665	9.5306
0.8429	0.2136	9.5180
1.1145	0.1143	9.8129
1.5087	0.8213	9.6442
0.5994	1.3723	9.2309
1.1659	0.2028	9.7196
1.4518	1.2251	9.8572
0.6562	1.0504	8.7894
1.2072	0.6993	9.7507
0.7442	0.3135	10.0773
1.0792	0.5713	9.5772
0.3374	0.9942	9.7836
0.7262	0.4552	9.8004
0.9470	0.0832	10.5475
0.4792	0.5737	9.5066
0.6191	0.7226	9.4642
1.1001	0.0736	9.9320
1.2185	1.3346	9.3523
0.8088	1.4231	9.2925
1.1270	0.5755	9.5976
1.2652	0.9661	10.0181
0.6030	1.0708	8.8534
0.9350	0.6592	9.4055
0.8961	0.1974	9.4863
0.5139	0.2034	9.7764
0.5587	1.2395	9.5312
0.9541	0.2698	9.7555
1.0899	0.2728	9.3050
0.6377	1.0528	9.4271
0.8578	0.8931	9.3152
1.3478	0.2273	9.7579
0.7639	0.6855	9.5156
1.0594	1.6283	8.6955
1.2347	0.5509	9.4725
1.3860	0.6933	9.3032
0.4863	0.6347	9.5682
1.2000	0.6341	9.8500
1.0146	0.3541	10.2735
0.5444	0.1561	9.5802
0.6646	1.4016	8.9922
0.9081	0.5306	9.4713
1.1797	0.4540	9.3786
0.4911	0.7693	9.3062
1.2616	1.1103	9.3373
1.3328	0.3888	9.9218
0.8764	0.5462	9.6705
0.6138	0.9817	9.6179
0.9458	0.3218	9.7076
1.1521	1.0481	9.2045
0.3709	0.6048	9.2201
1.7025	0.6981	9.2644
1.1605	0.5515	9.9619
0.6610	0.3308	9.2183
0.9446	0.8004	9.2356
1.0421	0.3069	9.2686
0.9936	1.1234	8.7308
0.5246	0.9535	8.8977
1.0929	0.4995	9.6759
1.0839	0.5408	10.3064
0.4780	0.7531	9.6221
0.7472	0.8225	9.9302
1.2389	0.4092	9.7154
0.9380	1.1779	8.7212
0.3266	0.6006	9.3068
1.2473	0.1884	9.5569
1.1109	0.8159	10.1521
0.4816	0.5097	9.1651
0.7609	0.8770	9.2189
1.2431	-0.0981	10.0079
0.7962	0.7495	8.5663
0.5635	0.8405	9.2135
1.6289	0.1830	9.7142
1.5972	0.9589	9.8105
0.9009	1.4441	9.0496
1.0313	0.8662	9.5186
1.7880	-0.1884	10.5218
0.9063	0.7980	9.1274
-0.0425	1.0134	9.0526
1.4500	0.1890	9.0568
0.6748	0.4493	9.9338
0.0353	1.1892	9.0083
0.7645	0.8943	9.5994
1.1497	-0.0658	10.3657
0.8339	0.8417	9.4043
0.5964	1.6875	8.5758
1.4459	0.2357	9.5814
1.1737	0.6957	9.5778
0.6724	1.5475	9.3134
0.9314	0.9045	10.0271
1.5565	0.4397	10.1539
0.5803	0.7232	9.5288
0.2991	0.8698	9.0382
1.3148	0.4457	9.1986
0.9111	0.3482	9.3834
0.4044	1.1055	9.4002
0.8399	1.0331	9.6436
1.1168	-0.0634	10.0755
0.8094	0.2662	9.5126
0.6784	0.8261	9.2016
1.5601	0.2877	9.2297
1.3645	0.5294	9.3601
0.7561	0.9811	9.1250
1.1342	1.0253	9.5204
1.3083	0.5246	9.7304
0.7190	0.9338	9.5013
0.5414	0.7836	9.6717
1.2622	0.6796	9.7202
0.8895	0.8082	9.3379
0.4451	0.7460	9.6568
1.3693	1.1109	9.5982
0.9870	0.7741	9.8087
0.5228	0.9703	9.7806
0.6802	0.4427	10.0025
1.3723	0.4014	9.9170
0.6550	0.5515	9.5629
0.4953	0.6490	9.0257
1.5368	0.3248	9.0460
0.9218	0.4989	9.3451
0.3649	1.3322	8.6339
1.3113	0.2399	9.5210
1.4800	0.5318	9.9900
0.8686	1.0331	8.8193
1.0140	0.7017	9.3170
1.7103	0.1819	9.5060
0.9595	1.0247	9.1507
0.4469	1.1599	9.0933
0.6395	0.3511	9.8494
0.6981	0.4636	9.7280
0.2094	0.7268	9.3804
0.4923	1.0271	9.5587
1.1234	0.1107	9.6867
0.7729	0.9625	9.0299
0.3446	1.6941	8.6464
1.1575	0.7442	9.5007
1.3657	0.6724	9.8757
0.6975	0.9499	9.1681
1.2311	0.7436	9.0879
1.7761	0.0167	9.6490
1.1420	0.3452	8.8923
0.5174	0.8943	9.3062
1.2915	0.1962	9.5988
0.8004	0.5222	9.2255
0.3697	0.6688	9.1627
1.1127	0.6592	9.5168
1.0786	0.5115	10.1419
0.7155	0.5611	9.4522
0.5916	1.7820	8.8684
0.9751	0.6335	9.4887
1.0086	0.7597	8.8809
0.5647	1.3759	9.3050
0.8728	1.0528	9.8931
1.3292	0.5982	9.9535
0.7789	0.8674	9.7447
0.5647	0.3930	9.7848
1.2449	0.5240	9.4636
0.9984	0.4056	9.2237
0.5677	0.3703	9.1046
0.6353	1.0768	9.1543
1.0732	0.8273	9.6580
1.0259	0.8818	9.9164
0.9446	0.5282	10.1024
1.1480	0.5079	10.0857
0.9350	0.8022	9.2057
0.8716	0.5898	9.3463
1.1826	0.3793	9.6538
1.0642	0.7418	9.4953
0.7214	0.9428	9.4426
0.7262	0.1454	9.4337
1.0582	0.8800	9.0939
0.7789	1.1521	9.0544
0.5258	0.3470	9.4689
0.9152	0.3494	9.8087
0.4313	0.5043	9.3583
0.5719	1.0845	9.6466
0.6796	0.2919	9.2949
1.1192	0.9697	9.3170
0.7813	1.1186	9.3649
0.9338	0.9200	9.6191
1.2042	0.4750	9.1357
0.8632	1.3131	9.5826
0.9458	1.1970	9.5509
1.2736	0.4385	10.2352
1.0666	0.5402	10.2047
1.0481	0.7914	8.9527
0.6586	0.0377	9.0897
0.4905	0.3589	8.8624
0.6963	0.6263	8.8169
0.8225	0.6401	9.5126
0.8124	0.6993	9.8578
0.8548	0.7005	9.3960
1.2640	0.7962	9.5844
0.8297	1.1396	9.8697
1.1432	0.3733	9.9218
1.1982	0.7226	9.9625
1.0181	0.6772	9.7645
0.6562	0.7436	9.1274
0.7824	0.2662	8.7499
0.9320	0.4415	9.6568
0.5659	0.7884	9.6364
0.7059	0.5928	9.0424
1.2879	0.4481	9.7046
0.9559	0.6760	10.0606
1.2155	1.5278	8.5734
0.9793	0.4493	9.5515
1.4560	0.3129	10.1030
1.0187	1.3962	9.6071
0.7783	0.4690	9.7890
1.2072	0.1388	9.9690
0.6132	0.8297	10.6103
0.5689	0.3691	9.6460
0.5486	0.5360	9.7639
0.8225	-0.1238	10.4979
0.5868	0.5737	9.0263
0.5904	1.0415	8.8707
1.2096	0.5192	9.6191
1.7976	0.5635	9.9116
1.3148	1.5876	9.3846
1.1216	0.7932	9.3780
1.7186	0.4080	9.9409
0.7932	0.9129	9.4109
0.7238	0.7005	9.5826
1.2120	0.1765	10.2759
0.6580	0.3685	9.7686
0.2818	0.9811	8.6374
0.4923	0.7448	8.6022
0.9290	0.6209	9.5850
0.3224	0.7693	9.4540
0.6652	1.4859	9.1908
1.4477	0.6156	9.8829
1.2203	0.4522	9.8482
1.0104	1.2377	9.2542
1.2149	0.4451	10.0815
1.4076	0.4762	10.0576
0.7848	0.3697	9.5922
0.4935	0.7089	9.6227
1.4291	0.5497	9.6263
0.8752	0.7184	9.7525
0.3954	0.5432	9.5587
1.1497	0.8094	10.3004
0.4678	0.4098	9.9571
0.6245	0.5946	9.7142
0.7669	1.2185	9.5635
0.9960	1.1408	9.0101
1.1719	0.9045	9.2674
0.6586	0.3918	9.3607
1.3597	0.6287	9.5928
0.8297	0.8291	9.2985
0.5438	0.6090	9.1100
0.7908	0.5934	9.4881
0.9529	0.6825	9.4660
0.6215	0.6897	9.7710
0.8961	0.0634	9.0436
1.4100	1.3172	9.6131
0.9374	1.4608	8.8002
1.3214	0.6490	9.6981
1.3675	0.3284	9.7716
1.0457	0.6724	9.9457
0.5916	0.4259	9.5324
0.6257	0.2495	10.1647
0.8076	0.4475	9.3080
0.4875	0.6185	9.3756
0.7394	0.5486	9.4516
0.7083	0.6221	9.7022
0.8297	1.2126	9.5988
0.8488	0.9434	9.4396
1.0672	0.7484	9.4444
1.2694	0.6610	9.5078
1.1773	0.6999	9.9248
1.1629	0.3900	9.9930
1.2969	0.4606	9.9607
0.9308	0.3194	9.5742
0.7980	0.3170	9.8356
0.6610	0.5097	9.0795
0.6275	0.7525	9.0484
0.7537	0.5324	9.0161
0.8548	1.4147	8.7738
0.8327	0.5671	9.1818
1.4794	0.4792	9.8500
0.6808	0.9900	10.4662
0.7645	0.9218	9.5312
1.1474	0.4738	9.9463
0.7484	0.4959	9.4887
0.7603	0.8548	9.0646
0.9583	0.3649	9.2512
1.3077	0.1172	9.7046
1.0104	0.6347	9.7369
1.1898	0.9404	8.8779
1.4369	0.3751	10.0791
0.9392	0.3302	10.2269
1.0265	0.7956	9.3068
1.0086	0.6078	9.3571
1.7210	0.4038	9.9547
0.9978	0.7777	9.3062
1.0295	1.2562	9.0741
0.8835	0.5785	9.7136
0.5976	0.3111	9.3714
0.1041	0.8728	9.0867
0.4504	0.8871	9.3894
1.1683	0.3595	10.4805
0.5318	0.7848	9.8087
0.4187	1.8078	8.8791
1.0750	0.3003	9.4151
0.9344	0.4092	9.6687
0.7095	1.3926	8.9976
0.9200	1.3561	9.3403
1.6169	0.5444	9.7752
0.9703	0.9152	9.6335
0.8351	0.4433	9.6227
1.3424	0.4092	10.0875
1.1426	0.0114	9.8243
0.9583	0.3027	9.4684
0.7029	0.8859	9.4588
1.2604	0.4122	8.9898
1.0678	0.4122	9.3918
0.6538	0.9769	9.6640
1.1468	1.1300	9.8608
0.6700	0.7687	9.9505
0.7454	0.6981	9.7088
0.6042	0.6574	10.0049
1.0522	0.9033	9.1830
0.8136	0.6221	9.3756
0.8291	0.0808	9.7800
0.8644	1.2544	9.0879
0.6999	0.3428	9.1627
1.0433	0.2650	9.6550
1.0612	1.2419	9.5820
1.1222	0.9739	9.2518
1.1378	0.1125	9.8410
1.2808	0.0718	10.4476
1.1139	0.6604	9.6496
1.0409	1.0235	8.9874
1.3807	0.0712	9.4211
1.0989	0.4576	8.9581
0.7143	1.5846	8.5208
0.4642	0.4839	9.7872
1.0594	0.3978	10.0737
0.4696	1.2030	9.2494
0.5294	1.0068	9.6969
1.3208	0.3332	10.3669
0.8758	0.7334	9.9966
0.6562	1.2754	9.5228
0.9787	0.6957	9.5682
1.1539	0.5390	9.4061
0.5653	1.1103	9.0711
0.5474	1.3244	8.7990
1.2114	0.4325	9.7064
0.7005	0.4403	9.9457
1.0056	0.5294	9.1734
1.1904	0.2548	10.1419
1.3083	0.2931	9.7184
0.9099	0.5043	9.8991
0.7280	0.5569	9.8602
1.1306	0.7328	9.1417
0.8728	0.6640	9.7938
0.8985	0.7621	9.2949
1.1450	1.5416	8.8331
1.0845	0.9039	9.2422
1.0253	0.2728	9.7166
0.5366	1.0833	9.9535
0.6514	0.6030	9.6382
0.5539	0.3751	9.5724
0.7274	0.1501	10.0378
0.7095	0.8052	8.7104
0.8369	0.8931	9.2554
1.4500	0.0808	9.4217
1.3220	1.1647	9.4199
0.9691	1.4028	8.8588
1.3483	0.4110	9.7268
1.3400	-0.3188	9.9798
0.9027	1.0672	9.1806
0.8967	0.5139	9.6412
1.6151	0.5133	9.7316
0.6718	0.9105	9.2027
0.6138	1.2479	8.9228
0.8082	0.6341	9.6006
0.8889	0.3942	10.0869
0.4887	0.9069	9.2542
0.4331	1.0594	9.1860
1.1563	0.3888	10.0654
0.6814	0.2405	9.9254
0.6502	1.2993	9.2195
0.9721	0.6682	9.1352
1.5446	0.6449	9.4390
0.9338	0.8465	9.5814
0.9230	0.9691	9.2805
1.6116	0.5342	10.3369
1.0744	0.5157	10.1204
1.0893	0.6485	9.6646
1.0816	0.6490	9.5431
0.9176	-0.0497	9.5383
0.8130	0.2895	9.6987
0.3667	0.9499	9.9397
0.6084	0.9482	8.7768
0.6766	0.9320	9.5216
0.7071	0.7250	9.5563
0.9200	1.5182	9.2985
1.0558	1.0756	9.4941
1.0510	0.5665	9.8004
1.1324	0.7854	10.5320
1.0193	0.8177	9.3511
0.7866	0.3464	9.1585
1.2173	-0.0855	9.8997
0.9972	0.6802	8.8612
0.4570	0.1956	9.4600
1.5404	0.0718	9.3906
1.2138	0.8369	9.8913
0.9039	0.9990	9.1818
0.9428	0.9398	9.4085
1.3262	0.0006	10.0713
1.0792	1.2335	9.7854
0.8363	1.1880	8.9132
1.1432	0.5396	9.2877
1.2981	0.9027	9.8183
0.4977	1.5290	8.7254
0.2524	0.5569	9.9188
0.6933	-0.0054	10.7521
0.3535	0.6431	9.9601
0.4445	0.7890	9.5682
1.0211	0.8387	9.3834
1.1683	0.6203	9.3050
1.2921	1.1025	9.3074
1.3531	0.4510	9.7232
1.3657	0.4469	10.5966
0.9691	0.9799	9.5180
0.9733	0.4869	9.3032
1.0905	-0.0814	10.1306
0.5055	0.6036	9.4366
0.6018	1.0606	9.2153
0.7412	0.3039	9.5419
0.8800	0.4104	9.1848
0.4349	0.9266	9.5258
1.2084	1.0247	9.3164
1.1150	0.7448	9.7657
0.8949	0.9709	9.7094
1.1749	1.2526	9.5102
1.3753	0.3153	9.8321
1.1450	0.1591	9.8117
0.6939	0.5683	9.1740
0.6706	0.6808	9.3583
1.1336	0.1567	9.1603
0.5916	0.9386	9.1848
0.6341	0.7256	9.8620
1.3573	0.9852	10.0408
1.1683	0.6323	10.0229
0.9757	0.5384	9.7322
1.0349	1.1683	9.8243
0.9870	0.8369	9.2572
0.9039	0.5491	9.7040
0.7418	0.6622	9.9475
0.7125	1.0128	9.5072
0.5210	0.5832	9.4468
0.5761	-0.1370	9.4660
0.6347	0.3284	10.0480
1.1001	0.6915	9.2626
0.9087	0.7537	9.4755
1.2592	0.2770	9.6478
1.3807	1.7653	8.7912
0.9470	0.5282	9.1746
1.6163	0.2040	9.7603
1.2024	0.7615	10.0241
0.6323	1.0295	9.4133
0.5880	0.5258	9.7567
0.9822	-0.1717	10.2017
0.4463	0.5139	9.2386
0.2028	1.1246	8.5812
0.9559	0.5408	9.6807
1.0002	0.5623	10.4416
0.8315	1.5805	9.7040
0.8070	0.7795	9.8111
1.5499	0.1962	10.3172
1.3286	0.6269	9.5874
1.0516	0.8835	9.1698
1.3083	0.3643	9.4085
1.5290	0.1759	9.5641
0.5216	0.9290	9.4301
0.4600	0.2112	9.4456
0.8680	-0.1645	9.7956
0.5737	0.8692	9.5228
0.5749	0.8339	9.6466
1.0223	0.4421	9.7232
1.2305	1.0469	10.0181
0.9063	1.6163	9.2805
1.3059	0.6496	9.7088
1.2520	0.3960	9.5312
0.3535	0.6843	9.4606
0.7466	0.6161	9.4869
0.6299	0.2728	10.0103
0.4158	0.5785	9.3882
0.8835	1.1252	8.8893
1.0516	0.5605	9.9110
1.2957	0.2841	10.1282
1.0367	1.0792	9.3804
0.7699	1.2610	9.5018
1.7491	0.0718	9.9930
1.1204	0.3655	9.0006
0.4558	0.9822	8.8121
1.4668	0.7160	9.7202
0.9332	0.2841	10.0259
0.4199	1.1013	9.6933
0.7244	1.1408	9.5994
0.9673	0.2034	10.1437
0.8494	0.5318	9.6951
0.5234	1.2676	9.1190
0.8429	1.3424	9.0454
1.4800	-0.1005	9.8662
0.9948	1.0409	9.8733
0.6371	0.2913	9.9900
1.4608	0.2058	9.9146
0.9398	-0.0425	10.0002
0.7304	0.3446	9.4271
0.9386	1.3352	9.1489
1.1545	0.5384	9.0269
1.0313	0.9158	9.2560
0.9416	1.1515	9.3409
1.2479	1.3184	9.5066
1.1761	0.4277	10.1736
0.8937	0.4588	10.3268
0.6120	0.5240	10.0588
0.6096	0.3458	9.2213
0.2638	0.6305	8.7409
0.9111	0.4780	9.6424
1.0708	1.1868	8.9300
0.6485	0.4839	9.1094
1.4614	0.4516	9.7190
1.2484	0.5276	10.4817
1.0570	1.2132	8.7631
1.0971	1.2024	8.8396
1.2179	0.4744	9.3816
1.2903	0.8524	10.2257
0.8213	0.5348	9.9858
0.7705	0.4307	9.6921
1.0463	0.2279	10.2053
0.3966	0.8764	9.1465
0.3182	0.1071	9.3200
0.7645	0.3278	9.5742
1.0696	0.7107	9.7692
0.8040	1.1037	9.6658
0.9476	0.8165	9.7268
1.3472	0.6042	10.0695
1.2179	1.0558	9.6550
0.9302	0.9440	9.2662
1.2897	0.3069	9.9445
1.2993	0.9344	9.6203
0.9547	1.1719	9.3116
0.6580	0.3769	9.8213
0.7256	0.1663	9.9050
0.3894	0.5168	9.8141
0.1813	0.1801	10.0043
0.9751	0.3075	8.7625
0.8369	0.8267	9.8937
0.8758	1.2879	9.2901
1.5571	0.3164	10.0283
1.3848	0.1466	9.8291
0.7992	1.1719	9.5144
0.9966	0.8375	9.5294
1.1222	0.7430	9.9541
0.5354	1.0361	9.1375
0.4768	1.1958	9.0999
0.7615	0.3649	9.8225
0.9834	0.5474	9.8021
0.6305	1.1569	9.7812
0.9499	1.1067	9.7728
1.2508	-0.0634	10.0331
0.7938	-0.0132	9.7238
0.6018	1.3005	8.8211
0.8124	0.3099	9.3984
1.2706	0.3858	9.7118
0.6419	1.1073	9.2871
0.9679	0.6652	9.7130
1.7067	-0.0712	9.7806
1.2855	0.4642	9.6233
0.7125	1.2012	9.0927
1.1599	0.9703	9.3774
1.2437	0.1478	9.4163
0.3434	0.8022	9.8033
0.4229	1.0798	9.5270
1.1581	0.2961	9.5910
0.8913	0.3063	9.6323
0.4319	1.1611	9.3134
0.7113	1.1156	9.3344
1.3226	0.3350	9.9738
0.6335	0.9565	9.9098
0.5342	1.0768	9.6095
1.4847	0.5509	9.9673
1.0475	0.3194	9.7716
1.0122	0.7041	9.5282
0.9631	1.0708	8.9120
1.1809	0.3535	9.2967
0.9206	0.7448	9.4779
0.7507	1.1210	9.4037
1.1952	0.5581	9.6873
1.2036	0.3003	9.8386
0.4696	0.8040	9.6735
0.6760	0.5192	9.5054
1.2401	0.4026	9.7447
0.6538	0.6867	9.7926
0.6413	0.4421	10.1270
1.2736	0.8213	9.6388
0.5838	0.4427	9.4390
0.9601	0.8686	9.6885
0.9290	1.1097	9.3140
1.0534	0.9745	9.3098
1.1354	0.8130	9.5102
1.0756	0.6090	10.5451
1.0690	0.5151	10.0809
0.8985	0.6048	9.6125
0.9625	0.3547	9.6400
1.0498	0.4475	9.8500
1.0845	0.9936	8.8390
0.4959	0.6825	8.9084
1.1886	0.4283	9.6263
1.0612	0.5653	9.7639
0.8488	0.5109	8.7308
1.3107	0.7131	9.1704
1.1127	0.9619	10.0331
0.8614	1.4776	9.2955
0.9045	0.8710	9.5928
0.8782	0.3135	9.5437
0.8465	0.2016	10.0295
0.5976	0.8800	9.0634
0.4720	0.7777	9.3224
1.2706	-0.0251	9.5862
0.7579	0.8698	9.4031
0.2949	0.7549	9.1471
1.3627	0.5115	9.9200
1.1958	0.7872	9.6376
0.9272	0.9882	8.9844
1.3406	0.8590	8.9820
1.6104	0.2213	9.9134
1.4207	0.7555	9.2620
0.8195	1.2401	8.8929
1.2132	0.1878	9.4666
1.2957	-0.1501	10.3339
0.2985	1.4213	8.9276
0.3488	0.5049	9.6017
0.9075	0.2788	10.6408
0.5366	0.6078	10.1964
0.1382	1.3525	9.1005
0.9470	1.0636	9.4833
1.3358	0.3673	9.8614
0.9003	0.9248	9.2027
1.0223	1.5775	8.9294
1.5972	-0.2106	9.8081
1.4261	0.5151	9.8829
0.6622	0.9482	8.6494
1.1085	0.5773	9.4504
1.6026	-0.2177	9.8727
0.8967	0.6975	9.6299
0.5480	0.8518	9.2069
1.4207	0.1238	9.9068
1.1581	0.2800	9.9260
0.3547	0.9954	9.4797
0.9332	1.3896	9.5186
1.4746	0.0772	10.3525
0.6526	0.9523	9.3858
0.3661	1.7641	8.7194
0.8847	0.5815	9.7477
1.1809	0.4654	10.2215
0.4780	1.2556	9.5880
0.6323	0.8728	9.3080
1.6044	-0.2207	9.4929
0.8979	0.8411	9.3726
0.5222	1.2933	8.6261
1.2873	0.9613	9.5018
1.3525	-0.0694	9.7340
0.7107	1.0552	9.2237
0.5785	1.3256	8.9683
1.6080	-0.3559	9.7782
1.0594	0.4684	9.7351
0.6347	1.1605	8.7505
1.2622	0.9236	9.5090
1.3543	0.0018	9.6837
0.4576	1.2060	8.8845
0.3655	1.0690	8.8893
1.4794	0.3308	9.4983
0.9757	0.4708	9.5856
0.5001	1.3519	9.1178
1.1605	0.9093	9.6006
1.4512	-0.2022	10.2011
0.7442	0.9009	9.8919
0.4415	1.2084	8.8558
0.8907	0.4881	9.5796
1.1097	0.1567	10.0103
0.6383	1.1832	8.8480
0.8907	0.8070	9.0688
1.8496	-0.0036	9.7088
1.0146	0.7675	9.3828
0.8195	1.4315	8.9575
1.3268	0.0921	9.8614
1.3220	0.1178	9.9314
0.5868	0.7920	9.4636
0.8285	1.1677	9.0406
1.4782	-0.0257	10.0366
0.9745	0.3751	10.0265
0.6120	1.2490	9.1028
0.9775	0.6622	9.5168
1.1994	0.2189	10.0133
0.4217	1.1055	9.1746
0.4498	1.5428	8.9485
1.2598	-0.0969	9.4654
1.2048	0.2650	9.6400
0.5354	0.8124	9.4857
1.1168	0.8315	9.2105
1.3436	0.5420	10.1521
0.5551	0.4893	9.5282
0.5073	1.1856	9.3176
1.0750	-0.2937	9.9888
0.9308	0.6102	9.5641
0.7155	1.2467	9.0012
0.9212	1.4321	9.4546
1.5715	-0.1466	10.2107
1.0343	0.6042	9.7208
0.6407	0.9799	9.0329
1.0756	0.1101	9.1687
0.7184	0.4140	9.6370
0.4887	0.7196	9.2051
0.8315	0.9021	9.6335
1.0475	-0.0185	10.4117
0.9141	0.6634	10.0875
0.9547	1.1755	9.1178
1.0552	0.7495	9.7268
1.3914	0.3769	10.0923
1.0624	0.9410	9.0825
0.8100	0.9822	9.4241
1.1892	-0.0024	9.6873
0.8142	0.5832	8.9455
0.5252	0.8279	8.7930
0.9147	0.8614	9.7477
0.8165	0.4044	10.0307
0.7681	1.1079	8.9180
0.7830	0.8770	9.0717
1.0708	0.3272	9.7986
1.0307	0.9476	9.7346
1.2114	1.6851	9.4229
0.8506	0.9858	9.6544
1.1288	0.2548	10.3244
0.6425	0.7226	9.8010
0.5629	0.6550	9.2446
0.8261	0.2237	9.2362
0.8393	0.5013	8.8977
0.6628	0.8321	9.1316
0.9464	0.4816	9.5324
0.7202	0.6006	10.2891
0.7747	0.5916	9.3726
1.1683	0.9936	9.4881
1.2078	0.6885	10.2095
1.1557	1.1318	9.7657
1.5733	0.9781	9.6131
0.9894	0.9458	9.8321
1.0810	0.2387	9.7244
0.8159	0.3571	9.3056
0.7944	0.1920	9.5270
0.7298	0.6233	9.4785
0.4792	1.1109	9.0514
0.7310	0.7131	9.3996
0.8614	0.4636	9.6885
0.7065	0.4325	9.7657
0.7824	1.2712	9.4600
1.4255	0.8632	9.9690
0.9996	0.9152	10.1174
0.8686	0.3864	10.0971
1.1133	0.1316	9.6544
0.9284	0.3003	9.6370
0.6257	-0.2626	9.4576
0.7932	1.1103	9.7848
1.2060	0.5444	9.3738
0.8566	0.7089	9.2638
0.9093	1.2532	9.2871
1.2628	0.7591	8.8947
1.2808	0.5115	9.4761
1.0229	1.0421	9.8668
0.7938	0.9691	9.6879
1.2155	0.5874	9.8315
0.3236	1.0451	9.6921
0.2638	0.7238	9.4989
0.7059	0.5581	9.7704
0.8614	0.3823	10.1377
0.3356	0.5856	9.9122
1.0475	0.9691	9.7704
1.4494	0.4833	9.6783
1.0020	0.4283	9.1908
1.1264	1.0283	9.2033
1.2455	0.7543	9.7537
1.2598	0.2788	10.6851
0.6173	0.5025	9.9906
0.7172	1.1168	9.3667
1.1707	0.1860	9.3906
0.8644	0.4672	9.1968
0.2692	0.6568	9.5904
1.1127	0.5689	9.8452
0.8823	0.5258	9.7704
0.4845	0.3799	9.4546
1.3412	1.5464	9.5216
1.0654	0.8991	10.1371
1.4136	0.5509	10.4135
0.7089	1.0151	9.4414
0.9697	0.8794	9.2865
0.9948	0.2626	8.7505
0.4235	0.7489	9.4163
0.9781	1.0762	9.3804
0.7753	0.4606	10.2993
0.7842	0.5067	9.6293
0.5186	0.3194	9.4911
1.0199	1.3585	9.5389
1.0726	0.9416	9.6759
1.2861	0.1896	10.0917
1.0457	1.3107	9.4031
1.0905	1.0247	9.4887
1.1145	-0.0712	9.6526
1.0810	0.4540	9.7896
0.9840	1.2120	9.5036
1.1210	0.4475	9.5671
1.0451	0.0568	10.2203
0.9230	0.5683	9.6370
0.5228	0.9954	9.3942
0.8231	0.4193	8.8785
0.8829	0.4187	9.3032
0.7830	1.0469	9.6059
0.9266	1.5876	9.7651
1.0654	0.1681	10.1312
1.0253	0.5713	9.9882
0.8357	0.9194	9.6364
0.8536	0.3709	10.0073
1.0827	0.0030	10.3645
0.7609	1.0851	9.5754
0.5683	0.9984	9.1292
0.7591	0.0203	9.0012
1.1264	0.0933	9.6873
0.7316	1.2090	9.4995
0.8076	1.2748	9.1824
1.4183	0.2853	9.3786
0.9649	0.4337	9.7304
0.8991	1.5613	9.7483
1.2419	0.0963	10.4207
1.3023	0.0550	10.3094
0.7005	1.3543	9.2063
0.4379	0.9105	8.8773
1.1300	0.3565	9.5007
0.6957	0.3422	9.7292
0.5025	1.4309	9.2482
0.6694	0.7729	9.9230
1.3777	-0.1986	9.7453
0.7382	0.9673	9.4833
0.6688	1.8592	8.9246
1.5218	0.2016	9.8925
1.2969	-0.1956	10.3429
0.7621	1.3836	9.1573
0.7388	0.5366	9.5671
1.4632	-0.0072	9.8105
0.7472	0.8219	9.2931
0.3428	1.2239	8.7164
1.4058	0.0544	9.8416
1.1186	0.0670	9.6568
0.5420	1.3418	8.9048
0.8937	1.5727	8.5393
1.5176	0.2949	9.6442
1.1689	0.2291	9.7980
0.6766	1.8849	9.0233
1.0140	0.5719	9.8129
1.0917	0.0748	10.1802
0.2865	0.9763	9.5569
0.4576	1.0804	9.1286
1.2155	0.0933	9.8153
0.5318	0.3505	9.2835
0.4839	1.1677	9.3236
0.8154	0.9338	9.9714
0.9505	0.3709	9.9888
1.0002	0.3763	9.5910
0.8369	1.4100	9.0317
1.4165	0.7280	9.4157
0.9870	0.1615	9.7292
1.1892	0.9009	9.6604
1.0032	0.7131	9.4809
0.8028	-0.0784	9.5856
0.5838	0.7495	9.1597
0.7741	0.6012	9.6370
0.7723	0.3769	9.6125
0.5043	0.7119	9.8506
1.1862	0.8405	9.4857
0.7884	1.0534	9.3870
0.9757	0.8267	9.7495
1.2161	0.8734	10.0127
1.0857	0.9882	9.9523
0.6933	1.1671	9.3439
0.6401	0.5049	10.0025
1.2568	0.4822	9.7148
0.7699	0.4881	9.9942
0.4295	0.2393	9.4684
1.1832	1.0229	9.2578
0.8734	0.4708	9.1405
0.9224	0.4092	9.4761
0.9990	0.6102	9.1764
1.1192	0.8937	9.6083
1.1240	0.5300	9.4851
1.1067	1.0552	9.1381
1.1958	1.1336	9.6634
1.0899	0.6987	9.6783
0.8961	0.5186	10.0767
0.5551	0.3811	9.7710
0.7298	1.1671	9.6849
0.5174	0.5432	9.2829
0.7741	0.0419	9.7770
0.8483	0.6831	9.4600
0.5695	1.4369	9.7675
1.0008	0.2530	10.0169
1.4237	0.1226	10.0797
0.8237	1.3657	9.1447
0.8100	0.7442	9.3326
1.3029	0.3236	9.6969
0.8668	0.7956	9.6741
0.4798	0.6903	9.1890
1.4704	0.2333	9.4444
1.1982	-0.1035	9.4612
0.7675	0.9027	9.3284
0.8094	1.3789	9.1471
1.3501	0.1507	10.1318
0.9894	0.1543	10.1066
0.8339	1.2461	9.4899
1.1468	1.1180	9.6526
1.1025	0.0981	9.9146
0.6461	0.4247	10.0253
0.8955	1.2437	9.4516
0.6574	0.8471	9.3954
0.6425	0.0502	9.4265
0.9272	0.5749	9.6412
0.7125	0.6963	9.6215
0.6580	1.0947	9.4187
1.2574	0.0162	9.7537
1.4710	0.7256	9.8111
0.9081	1.2090	9.2237
1.3621	0.6694	9.7040
1.4351	0.3027	9.7914
0.5749	1.0134	9.2859
0.6233	0.6736	9.2668
1.0857	0.2925	10.1090
0.5581	0.8255	9.5371
0.6353	0.1256	9.8081
1.0738	0.7998	9.4097
0.5623	0.9087	9.5491
0.6802	0.6825	9.4456
1.3059	0.9362	9.7686
0.9344	0.9775	9.5964
1.0116	0.7908	9.8201
1.3376	0.6335	9.5024
1.1420	1.2096	9.5365
0.8195	0.2835	9.4480
1.2413	0.6455	9.6957
0.2698	0.9679	9.5060
0.9446	-0.0006	9.4247
1.2197	0.3679	9.9649
0.2572	0.7741	9.6508
0.8985	0.8554	9.4157
1.5141	0.7418	9.6131
0.8907	0.8644	9.1710
1.0780	0.6586	9.1974
1.1527	1.1480	9.7011
0.6520	1.0558	9.4157
1.0570	0.0371	9.7405
1.0307	0.5665	9.5808
0.0742	1.1898	9.1058
1.1946	0.2136	9.1040
1.0935	0.1490	9.7686
0.6401	0.6520	8.8492
0.9266	1.0373	9.2219
1.0624	0.9021	9.3613
0.6676	0.7866	9.4229
1.2999	0.2453	9.6197
1.0169	1.2233	9.0957
0.7190	1.3280	9.3631
1.4106	0.2548	9.7686
1.1850	0.3625	9.8781
0.5689	0.7813	9.4570
0.8195	1.0702	9.3702
0.3972	0.3188	9.4444
0.7675	0.0873	9.5383
1.1773	0.6257	9.8979
0.5450	0.8746	9.0580
1.1569	0.9087	9.4079
1.2622	0.6060	9.9684
1.1743	0.2249	9.8291
1.0122	1.2257	9.5557
0.7807	0.9458	9.5587
0.9398	0.2465	9.7860
1.1904	0.3661	9.8877
0.7214	0.7860	9.4767
0.8022	0.1077	9.3870
0.7023	0.7059	9.6676
0.6239	0.6485	9.5766
0.9769	0.3858	9.4713
1.1485	0.9559	9.5772
0.7358	0.6987	9.3714
1.2730	1.1180	9.3918
0.8411	0.8500	9.3840
1.0193	0.6784	9.3350
1.2215	0.6203	9.6741
0.5982	0.2471	9.4827
0.7376	1.0343	9.2859
0.5306	0.9033	9.1058
1.0157	0.0365	9.1716
1.1336	0.2925	9.6562
0.9583	0.6766	9.7232
1.2945	1.1204	9.3224
0.8590	1.0588	9.4666
1.3148	0.3811	9.4265
1.3729	0.3888	9.8159
0.6969	0.7149	9.6849
0.7472	1.5703	8.9473
0.5444	0.9003	9.3020
1.0104	-0.3033	9.4678
0.9643	0.3170	9.8356
0.8225	1.0588	9.6000
0.6221	1.0373	9.0999
0.6401	0.7370	9.3625
1.1713	0.2381	9.5132
1.3483	0.4259	9.9003
0.8148	1.1049	9.6263
0.7962	1.3836	9.1573
0.8333	0.7489	9.5563
1.0804	-0.1280	9.6849
1.1001	0.5755	9.7872
0.8465	1.1216	9.5922
0.6126	0.7801	9.3918
0.6269	0.5581	9.8010
0.9948	0.3063	9.8231
1.0098	0.4816	9.4181
1.0068	0.6395	9.5593
0.8752	1.1557	9.5096
0.8949	0.6688	9.7579
1.0498	0.3733	9.8243
0.8255	0.6873	9.5820
0.9817	0.6299	9.3565
1.1940	0.5228	9.7088
0.6389	0.4235	9.4917
0.8273	1.1563	9.1172
0.5396	0.9164	9.2045
0.8979	0.2154	9.2889
0.9745	0.5414	9.6993
0.9206	0.7597	9.8165
1.1240	0.9170	9.2093
0.4032	1.1581	9.3218
1.0116	0.7244	9.4618
0.9482	0.2518	9.8560
0.8913	0.3434	9.6789
0.9697	1.0301	9.0245
0.4307	1.0433	8.9964
1.1988	0.5563	9.4396
0.8698	0.2895	9.6831
1.2891	0.5282	9.7752
1.1533	1.0271	9.6466
0.5282	0.8477	8.9736
1.0026	0.7633	9.2231
1.0486	0.4062	9.8817
0.9398	0.0867	9.6071
0.9003	0.8919	9.6897
0.4283	1.0738	9.3571
0.8213	0.7214	9.4845
0.6449	0.5360	9.8572
1.0104	0.4463	9.5587
1.1575	0.9535	9.6705
1.0666	0.8016	9.6161
0.9924	0.5785	9.5587
1.0379	0.7908	9.7381
0.8309	0.3230	9.8452
1.0074	0.6742	9.6346
0.7777	0.6987	9.6496
1.1701	0.3350	9.7561
1.0917	0.5264	9.8404
0.7226	0.4289	9.2901
0.9099	1.1043	9.2482
0.6772	0.8818	9.3918
1.2688	0.5180	9.7537
1.0295	0.4863	9.9122
1.1198	0.5976	9.6777
0.9817	0.9817	9.1908
0.2680	0.9661	9.3415
0.9811	0.4265	9.5898
0.9523	0.3589	10.0474
1.1809	0.1567	9.7770
0.8877	0.8375	9.3619
0.6664	1.0792	9.1543
1.0558	0.6335	9.2189
1.0642	0.6467	10.0331
1.1438	0.2363	9.7639
1.3238	0.9410	9.5455
0.7711	0.8536	9.4725
0.8620	0.6802	9.2434
0.7053	0.5533	9.7854
0.7783	0.3553	9.7250
0.9811	0.7101	9.6640
0.5444	0.7783	9.4803
1.1803	0.7651	9.3020
0.7430	0.7681	9.5575
1.1091	0.5055	9.5916
0.8471	0.8387	9.5162
0.8889	0.9009	9.7178
1.1647	0.6502	9.6173
1.0343	0.5581	9.8823
0.8638	0.1819	9.6329
0.8578	0.8357	9.4474
0.6987	0.6586	9.3134
1.0038	0.7166	9.4109
0.9117	0.6377	9.5856
1.0247	0.5031	9.8219
1.2281	0.6957	9.4689
0.6305	1.0157	9.3655
1.1061	0.6891	9.3206
0.7962	0.9535	9.4289
0.9051	0.5085	9.6059
0.9428	0.4110	9.6089
0.8973	0.7519	9.8494
0.8542	0.4708	9.4008
0.9691	0.8901	9.6173
0.5916	0.5127	9.5156
1.0941	0.5749	9.6676
0.8554	0.6981	9.6634
1.0678	0.5486	9.8410
0.9356	0.7208	9.3595
0.8536	0.9147	9.6364
1.1025	0.5396	9.3714
0.8423	0.8375	9.7226
0.7669	0.4516	9.7579
0.9649	0.8064	9.5712
0.8626	0.7208	9.6185
0.9505	0.5725	9.7220
0.8028	0.9087	9.4157
0.8662	0.5892	9.7782
1.0851	0.4361	9.4977
0.8052	0.9356	9.7124
0.9158	0.4409	9.4612
1.2108	0.8895	9.6448
0.9081	0.5354	9.6000
1.1653	0.5186	9.7776
0.7675	0.5773	9.6095
0.8530	0.7424	9.6652
0.9410	0.7364	9.3589
0.8130	0.8979	9.9571
0.9087	0.2692	9.7190
1.1940	0.6676	9.8560
0.7711	0.5432	9.5030
1.0116	0.7238	9.6293
0.5964	0.7047	9.4797
0.9452	0.6915	9.7716
0.8985	0.7412	9.5503
0.9051	0.7657	9.7477
0.9733	0.3063	9.4923
1.1031	0.8746	9.6376
0.7836	0.6508	9.4600
1.2383	0.8327	9.5581
0.6736	0.7932	9.6245
1.0732	0.4588	9.5419
0.8943	0.6514	9.5294
1.0229	0.8070	9.5563
0.8148	0.5354	9.5677
0.9194	0.7633	9.4689
0.6849	0.5964	9.6759
1.1109	0.4672	9.3457
0.6837	0.8847	9.7118
1.0630	0.4636	9.5682
1.1049	0.8782	9.4618
0.9416	0.7639	9.4552
1.1785	0.5234	9.7226
0.7304	0.7304	9.5958
0.8865	0.5288	9.5832
0.8584	0.5611	9.4893
0.9141	0.7914	9.4959
0.8016	0.4020	9.6185
1.1342	0.7573	9.4707
0.7466	0.7346	9.5910
1.0289	0.5402	9.3846
0.8351	0.8237	9.5868
0.7083	0.5952	9.5910
1.2215	0.6502	9.6017
0.7920	0.9482	9.5222
1.1103	0.6449	9.6329
0.8261	0.5982	9.6035
0.8004	0.7280	9.4516
0.7400	0.3452	9.6113
0.9493	0.7854	9.4438
0.8752	0.4768	9.7543
1.1348	0.4887	9.5760
1.0110	0.8686	9.5964
0.8411	0.5623	9.5994
1.1922	0.8560	9.3379
0.6706	0.8315	9.6777
1.0516	0.4875	9.5467
0.8465	0.7819	9.6251
0.8686	0.8231	9.4809
1.0564	0.4648	9.7310
0.7807	0.7759	9.6245
0.8644	0.6138	9.5970
0.8955	0.5109	9.5222
0.9003	0.9559	9.5030
0.7765	0.4475	9.7507
1.1635	0.8393	9.4349
0.8369	0.7537	9.6532
1.0774	0.4935	9.5042
1.1294	0.7753	9.4995
0.7567	0.5348	9.7286
1.0899	0.5055	9.5569
0.7801	0.7836	9.5868
0.8841	0.6060	9.5090
1.0774	0.7645	9.6412
0.8159	0.7304	9.6460
0.9745	0.5276	9.5419
0.9942	0.6796	9.5922
0.8351	0.8321	9.4929
0.8853	0.5013	9.6652
0.9206	0.7280	9.5802
0.8722	0.7017	9.5162
0.8925	0.5270	9.5778
0.9894	0.8016	9.5013
0.8812	0.6078	9.7070
0.9918	0.4612	9.6430
0.8602	0.8231	9.4109
0.8201	0.5234	9.6197
1.0702	0.5797	9.6047
0.7717	0.7926	9.5988
0.8632	0.6449	9.6879
1.0385	0.5480	9.4923
0.8895	0.7083	9.5192
0.9051	0.6209	9.6137
0.9781	0.7077	9.5766
0.8656	0.7992	9.6107
0.8871	0.6263	9.6155
0.9864	0.5880	9.6341
0.8961	0.7597	9.5156
1.0020	0.6808	9.6155
0.9009	0.4498	9.5359
0.9487	0.8142	9.4193
0.8716	0.6096	9.6358
0.9691	0.5659	9.6562
0.8171	0.9033	9.4426
0.9745	0.7047	9.7148
0.9290	0.4295	9.5754
0.9093	0.7597	9.3391
1.0259	0.5683	9.6604
0.8710	0.6209	9.5407
0.9182	0.8907	9.4037
0.8512	0.6239	9.7417
0.8548	0.6616	9.6131
0.9661	0.6742	9.4091
0.9021	0.6311	9.6394
1.0481	0.6197	9.5425
0.9900	0.6371	9.4857
0.8417	0.7280	9.7256
0.9117	0.7047	9.5635
0.8931	0.6257	9.5599
0.8829	0.5922	9.5377
0.9655	0.6790	9.5246
1.0116	0.6036	9.6035
0.8722	0.6598	9.5688
0.9697	0.6748	9.6077
0.9589	0.7298	9.5802
0.8369	0.7824	9.6753
0.9308	0.5396	9.4827
0.9087	0.6969	9.5318
0.9332	0.7017	9.5497
0.9446	0.6526	9.5665
0.9517	0.5593	9.5084
0.9559	0.6209	9.6071
0.8578	0.9051	9.4803
0.7968	0.7089	9.6023
0.9392	0.5910	9.6263
1.0014	0.6197	9.5090
1.0271	0.6873	9.5347
1.0379	0.6670	9.5802
0.9182	0.5767	9.5198
0.8722	0.7220	9.5467
0.7938	0.7914	9.6239
0.8883	0.7005	9.6412
0.8907	0.5486	9.6394
0.9751	0.5270	9.5007
0.9966	0.7101	9.4761
0.8907	0.7322	9.6017
0.9386	0.6664	9.5898
0.8949	0.6556	9.5653
0.9685	0.7507	9.5898
0.9356	0.6957	9.5808
0.9135	0.6221	9.5246
0.9625	0.5773	9.5718
0.8315	0.6712	9.5455
0.8823	0.7178	9.5353
0.8656	0.6969	9.5898
0.9900	0.5898	9.5294
0.9565	0.6688	9.6131
0.9039	0.7388	9.5635
0.9284	0.7406	9.4977
0.9380	0.6479	9.6729
0.9655	0.5701	9.5880
0.9081	0.6598	9.5264
0.9613	0.6592	9.5162
0.8991	0.6544	9.6376
0.9117	0.5916	9.5982
0.9248	0.6754	9.5246
0.9087	0.6849	9.5754
0.9799	0.7017	9.4929
0.9505	0.6317	9.6143
0.9164	0.6688	9.5347
0.7854	0.6814	9.5455
0.8488	0.7172	9.6239
0.9194	0.6526	9.5443
0.9051	0.4612	9.5449
0.9559	0.6754	9.5874
0.9260	0.6915	9.5449
0.9529	0.6682	9.5820
0.9703	0.6263	9.4995
0.9541	0.6772	9.5300
0.9565	0.6544	9.5958
0.8818	0.6640	9.5677
0.9009	0.6048	9.5742
0.9158	0.6688	9.5802
0.8997	0.7178	9.5653
0.9248	0.6532	9.5796
0.9386	0.6670	9.5641
0.9422	0.6772	9.5605
0.9464	0.6987	9.6047
0.8955	0.6742	9.6209
0.9296	0.6114	9.5665
0.9314	0.6556	9.5892
0.9272	0.6323	9.5665
0.9158	0.6293	9.5910
0.9362	0.6281	9.5264
0.9194	0.6640	9.5491
0.8967	0.7489	9.5641
0.9350	0.6963	9.5940
0.9452	0.6293	9.5910
0.9320	0.6736	9.5096
0.9123	0.6837	9.5724
0.9254	0.6239	9.5760
0.9230	0.6586	9.5467
0.9224	0.6221	9.5665
0.9200	0.6951	9.5688
0.9230	0.6616	9.5647
0.9775	0.6299	9.5599
0.9057	0.6814	9.5970
0.9152	0.6987	9.5204
0.8782	0.7047	9.5647
0.8907	0.6395	9.5724
0.9356	0.6700	9.5258
0.9015	0.6526	9.5611
0.9278	0.6652	9.5724
0.8961	0.6598	9.5700
0.9320	0.6496	9.5473
0.9338	0.6502	9.5856
0.9188	0.6730	9.5569
0.9470	0.6724	9.5234
0.9039	0.6532	9.5910
0.9344	0.6419	9.5677
0.9290	0.6544	9.5796
0.9218	0.6520	9.5682
0.9559	0.6724	9.5635
0.8871	0.6760	9.6185
0.8847	0.6927	9.5497
0.9129	0.6963	9.5575
0.9206	0.5940	9.5952
0.9745	0.6514	9.5449
0.9033	0.6544	9.5700
0.9350	0.6520	9.5647
0.9123	0.6975	9.5222
0.9278	0.6736	9.6089
0.9493	0.6598	9.5533
0.9619	0.6766	9.5288
0.9673	0.6096	9.6203
0.8919	0.6634	9.5677
0.8955	0.7065	9.5437
0.8524	0.6490	9.6173
0.9278	0.6407	9.5832
0.9470	0.6754	9.5527
0.9350	0.6317	9.5784
0.9613	0.6694	9.5407
0.9170	0.6514	9.5700
0.9452	0.6353	9.5820
0.8782	0.6760	9.5527
0.9655	0.6945	9.5718
0.9332	0.5922	9.5844
0.9739	0.6538	9.5443
0.9170	0.6861	9.5766
0.9224	0.6610	9.5688
0.8823	0.6802	9.5814
0.9111	0.6580	9.6269
0.9176	0.6903	9.5413
0.9476	0.6646	9.5515
0.9272	0.6449	9.5976
0.9182	0.6604	9.5551
0.9009	0.6772	9.5952
0.8704	0.6586	9.5892
0.9200	0.6544	9.5880
0.9200	0.6233	9.5928
0.9727	0.6538	9.5700
0.9368	0.6443	9.5539
0.9535	0.7047	9.5706
0.9111	0.6467	9.5647
0.9428	0.6652	9.5587
0.9416	0.6622	9.5970
0.9356	0.6347	9.5509
0.9446	0.6592	9.5539
0.9087	0.6598	9.6053
0.9033	0.6652	9.5593
0.9380	0.6383	9.5527
0.9589	0.6682	9.6029
0.9027	0.6676	9.5389
0.9266	0.6903	9.5635
0.8883	0.6963	9.6143
0.8782	0.6718	9.5569
0.9051	0.6646	9.5491
0.9248	0.6353	9.5910
0.9374	0.6383	9.5383
0.9392	0.6628	9.5617
0.9218	0.6814	9.5952
0.9290	0.6742	9.5342
0.9984	0.6604	9.5790
0.9661	0.6329	9.5898
0.9775	0.6305	9.5240
0.9505	0.6706	9.5766
0.8818	0.6502	9.5970
0.9170	0.6520	9.5413
1.0618	0.6592	9.5838
0.9188	0.6754	9.5994
0.9326	0.6861	9.5467
0.9224	0.6688	9.5671
0.8823	0.7059	9.5874
0.8620	0.6879	9.5742
0.8997	0.6927	9.5712
0.9338	0.6239	9.5976
0.9470	0.6473	9.5401
0.9565	0.6299	9.5533
0.9428	0.6538	9.5730
0.9296	0.6479	9.5587
0.9763	0.6479	9.5712
0.9404	0.6461	9.5880
0.9924	0.6347	9.5318
0.9553	0.6556	9.5916
0.9302	0.6718	9.5868
0.9123	0.6891	9.5671
0.9009	0.6514	9.5880
0.9123	0.6790	9.5665
0.9135	0.6772	9.5635
0.9230	0.6496	9.5790
0.9057	0.6562	9.5677
0.9063	0.6514	9.5850
0.8997	0.6945	9.6000
0.9039	0.6598	9.5808
0.9667	0.6652	9.5593
0.8979	0.6694	9.6113
0.9398	0.6885	9.5318
0.9045	0.6808	9.6017
0.9410	0.6156	9.5659
0.9308	0.6544	9.5581
0.9434	0.6179	9.5653
0.9332	0.6574	9.5796
0.9368	0.6467	9.5593
0.9422	0.6730	9.5659
0.9464	0.6849	9.5653
0.9691	0.6849	9.5407
0.9583	0.6604	9.5862
0.9470	0.6520	9.5688
0.9260	0.6670	9.5611
0.8644	0.6646	9.5910
0.8716	0.6443	9.5688
0.8883	0.6610	9.5754
0.8638	0.6485	9.5647
0.9224	0.7077	9.5557
0.8686	0.6461	9.5892
0.9625	0.6915	9.5718
0.8698	0.6820	9.5874
0.9613	0.6981	9.5473
0.9027	0.6461	9.6023
0.9775	0.6473	9.5443
0.9374	0.6485	9.5874
0.9212	0.6227	9.5659
0.9840	0.6514	9.5671
0.9033	0.6359	9.5838
1.0092	0.6610	9.5503
0.9099	0.6658	9.5766
1.0157	0.6616	9.5347
0.7801	0.6921	9.5988
0.9344	0.6496	9.5718
0.9236	0.6831	9.5641
0.8441	0.6670	9.6101
0.9571	0.6329	9.5132
0.8429	0.6849	9.6161
0.9069	0.6323	9.5796
0.8949	0.7160	9.5383
0.8488	0.6502	9.6233
0.9691	0.6963	9.5234
0.8375	0.6849	9.6185
0.9655	0.6335	9.5569
0.9021	0.6814	9.5706
0.8943	0.6365	9.5688
0.9715	0.6736	9.5222
0.8943	0.6281	9.6101
0.9846	0.6467	9.5096
0.9446	0.6927	9.5503
0.9248	0.6305	9.5988
0.9990	0.6712	9.5114
0.9230	0.6359	9.6143
0.9416	0.6622	9.5419
0.9613	0.6808	9.5246
0.8758	0.6156	9.6323
0.9332	0.6694	9.5288
0.9015	0.6784	9.5928
0.8596	0.6658	9.5862
0.9511	0.6915	9.4935
0.8853	0.6377	9.6508
0.9099	0.6742	9.5545
0.9051	0.6820	9.5461
0.8985	0.6538	9.6329
0.9230	0.6867	9.5318
0.9260	0.6455	9.5940
0.9499	0.6532	9.5694
0.9296	0.6634	9.5545
0.9493	0.6407	9.5677
0.9482	0.6479	9.6065
0.9392	0.6365	9.5772
0.9577	0.6676	9.5413
0.9404	0.6467	9.6179
0.9218	0.6604	9.5575
0.9535	0.6796	9.5300
0.9045	0.6532	9.5838
0.9362	0.6897	9.5521
0.9135	0.6640	9.5688
0.9266	0.6389	9.5802
0.9111	0.6640	9.5647
0.9009	0.6939	9.5808
0.9051	0.6676	9.5694
0.8859	0.6544	9.5844
0.9284	0.6652	9.5677
0.8931	0.6987	9.5473
0.9386	0.6592	9.5898
0.9356	0.6610	9.5754
0.9248	0.6598	9.5485
0.9446	0.6742	9.5641
0.9332	0.6676	9.6023
0.9434	0.6508	9.5485
0.9470	0.6508	9.5623
0.9493	0.6185	9.5922
0.9278	0.6879	9.5497
0.9739	0.6837	9.5605
0.9320	0.6311	9.6161
0.9464	0.6622	9.5635
0.9272	0.6766	9.5653
0.9332	0.6945	9.5551
0.8943	0.6227	9.6083
0.9212	0.6479	9.5665
0.8818	0.7131	9.5551
0.9015	0.6718	9.5706
0.9135	0.6419	9.5868
0.9200	0.6748	9.6006
0.9003	0.7029	9.5491
0.9212	0.6700	9.5557
0.9248	0.6479	9.6263
0.9314	0.6455	9.5641
0.7741	0.6628	9.5581
0.9254	0.6473	9.5904
0.9368	0.6425	9.5665
0.9290	0.6383	9.5671
0.9493	0.6754	9.5533
0.9380	0.6556	9.5898
0.9685	0.6526	9.5563
0.9039	0.6502	9.5844
0.9733	0.6784	9.5748
0.9057	0.6479	9.5802
0.9464	0.6437	9.5724
0.8913	0.6784	9.5503
0.9081	0.6628	9.5647
0.9057	0.6580	9.5904
0.9176	0.6718	9.5856
0.9015	0.6598	9.5491
0.9135	0.6993	9.5862
0.9218	0.6413	9.5844
0.8991	0.6700	9.5730
0.9392	0.6485	9.5772
0.9075	0.6676	9.5820
0.9320	0.6574	9.5694
0.9655	0.6395	9.6047
0.9015	0.6479	9.5629
0.9834	0.6766	9.5198
0.9057	0.6395	9.6352
0.9667	0.6598	9.5234
0.9529	0.6526	9.5641
0.9314	0.6395	9.6095
0.9434	0.6921	9.5204
0.9194	0.6622	9.5826
0.9344	0.6508	9.5988
0.9099	0.6598	9.5455
0.9344	0.6849	9.5784
0.9099	0.6682	9.5856
0.9248	0.6628	9.5647
0.9045	0.6610	9.6059
0.8991	0.6891	9.5718
0.8991	0.6831	9.5611
0.9224	0.6580	9.5820
0.9236	0.6449	9.5682
1.0696	0.6712	9.5389
0.9434	0.6933	9.5677
0.8865	0.6736	9.5778
0.9410	0.6574	9.5330
0.9422	0.6473	9.6023
0.9314	0.6479	9.5587
0.9607	0.6730	9.5066
0.9601	0.6257	9.6047
0.9278	0.6461	9.5892
0.9464	0.6766	9.5162
0.8991	0.6754	9.6035
0.9236	0.6694	9.5808
0.9446	0.6538	9.5533
0.9212	0.6556	9.5880
0.9099	0.6748	9.5665
0.9158	0.6843	9.5521
0.9176	0.6754	9.5976
0.9081	0.6341	9.6006
1.0696	0.6879	9.5539
0.8973	0.6879	9.5748
0.9434	0.6514	9.5928
0.9386	0.6688	9.5808
0.9135	0.6586	9.5599
0.9326	0.6784	9.5515
0.9362	0.6646	9.5826
0.9266	0.6502	9.5814
0.9362	0.6461	9.5455
0.9422	0.6532	9.5964
0.9398	0.6790	9.5509
0.9476	0.6718	9.5623
0.9332	0.6353	9.6017
0.9362	0.6808	9.5174
0.9314	0.6891	9.5539
0.9212	0.6742	9.6017
0.9266	0.6341	9.5617
0.9200	0.6628	9.5497
0.9081	0.6706	9.5856
0.9081	0.6736	9.5826
0.8949	0.6634	9.5677
0.9212	0.6538	9.5790
0.9003	0.6903	9.5820
1.0660	0.7029	9.5395
0.9404	0.6401	9.5694
0.9386	0.6437	9.5916
0.9350	0.6760	9.5306
0.9284	0.6712	9.5748
0.9230	0.6526	9.6041
0.9446	0.6407	9.5449
0.9356	0.6604	9.5754
0.9464	0.6688	9.5874
0.9487	0.6760	9.5419
0.9499	0.6419	9.5694
0.9314	0.6574	9.5838
0.9194	0.6802	9.5611
0.9087	0.6622	9.5659
0.9135	0.6479	9.5724
0.9147	0.6532	9.5754
0.8997	0.6760	9.5754
0.9069	0.6760	9.5575
0.9075	0.6736	9.5796
0.9105	0.6670	9.5826
0.9182	0.6640	9.5694
0.9218	0.6748	9.5784
0.9332	0.6646	9.5533
0.9440	0.6496	9.5808
0.9272	0.6520	9.5952
0.9386	0.6622	9.5503
0.9428	0.6688	9.5748
0.9487	0.6449	9.5934
0.9553	0.6520	9.5569
0.9434	0.6736	9.5533
0.9446	0.6580	9.5898
0.9368	0.6658	9.5718
0.9176	0.6712	9.5677
0.9135	0.6556	9.5814
0.9158	0.6688	9.5545
0.9045	0.6706	9.5712
0.9027	0.6532	9.5832
0.9003	0.6766	9.5503
0.9123	0.6784	9.5503
0.9135	0.6616	9.6059
0.9087	0.6634	9.5539
1.0696	0.6724	9.5371
0.9254	0.6646	9.6047
0.9212	0.6616	9.5802
0.9422	0.6628	9.5413
0.9523	0.6473	9.5850
0.9416	0.6538	9.5724
0.9458	0.6688	9.5479
0.9374	0.6461	9.5832
0.9350	0.6520	9.5700
0.9523	0.6622	9.5431
0.9434	0.6586	9.5862
0.9559	0.6413	9.5694
0.9344	0.6622	9.5527
0.9147	0.6742	9.5796
0.9099	0.6730	9.5814
0.9051	0.6790	9.5599
0.9105	0.6640	9.5677
0.9129	0.6652	9.5808
0.8973	0.6820	9.5677
0.9051	0.6736	9.5593
0.9135	0.6520	9.5844
0.9206	0.6652	9.5784
0.9278	0.6730	9.5593
0.9458	0.6646	9.5754
0.9487	0.6449	9.5826
0.9404	0.6544	9.5491
0.9470	0.6646	9.5802
0.9434	0.6502	9.5730
0.9464	0.6526	9.5527
0.9434	0.6449	9.5766
0.9314	0.6586	9.5760
0.9242	0.6748	9.5473
0.9242	0.6592	9.5724
0.9069	0.6544	9.5952
0.9069	0.6736	9.5431
0.9075	0.6796	9.5772
0.9051	0.6604	9.5898
0.9045	0.6688	9.5581
0.9093	0.6622	9.5862
0.9045	0.6676	9.5796
0.9152	0.6718	9.5575
0.9230	0.6604	9.5874
0.9260	0.6658	9.5772
0.9386	0.6640	9.5593
0.9374	0.6616	9.5659
0.9464	0.6514	9.5712
0.9470	0.6455	9.5671
0.9458	0.6604	9.5557
0.9326	0.6479	9.5760
0.9428	0.6628	9.5581
0.9362	0.6550	9.5563
0.9398	0.6479	9.5700
0.9410	0.6616	9.5629
0.9308	0.6634	9.5724
0.9260	0.6640	9.5730
0.9099	0.6634	9.5754
0.9051	0.6748	9.5736
0.9093	0.6694	9.5886
0.9123	0.6646	9.5880
0.9182	0.6640	9.5682
0.9141	0.6544	9.5862
0.9141	0.6646	9.5754
0.9206	0.6700	9.5629
0.9314	0.6556	9.5766
0.9338	0.6580	9.5671
0.9386	0.6532	9.5635
0.9392	0.6622	9.5659
0.9368	0.6562	9.5647
0.9410	0.6455	9.5641
0.9452	0.6496	9.5629
0.9368	0.6550	9.5682
0.9368	0.6616	9.5641
0.9392	0.6556	9.5677
0.9260	0.6532	9.5826
0.9188	0.6676	9.5677
0.9164	0.6706	9.5736
0.9158	0.6580	9.5922
0.9105	0.6622	9.5766
0.9141	0.6688	9.5665
0.9194	0.6628	9.5850
0.9158	0.6622	9.5730
0.9224	0.6646	9.5551
0.9218	0.6652	9.5742
0.9212	0.6724	9.5712
0.9302	0.6694	9.5605
0.9356	0.6580	9.5772
0.9326	0.6556	9.5700
0.9392	0.6640	9.5605
0.9404	0.6586	9.5677
0.9416	0.6568	9.5736
0.9452	0.6574	9.5629
0.9428	0.6568	9.5724
0.9356	0.6616	9.5665
0.9362	0.6610	9.5563
0.9278	0.6526	9.5778
0.7657	0.6574	9.5760
0.9123	0.6664	9.5682
0.9069	0.6736	9.5790
0.9081	0.6658	9.5826
0.9099	0.6634	9.5730
0.9129	0.6670	9.5599
0.9141	0.6664	9.5677
0.9170	0.6628	9.5742
0.9212	0.6622	9.5688
0.9266	0.6580	9.5688
0.9242	0.6574	9.5682
0.9290	0.6532	9.5700
0.9392	0.6473	9.5724
0.9356	0.6514	9.5688
0.9344	0.6556	9.5665
0.9392	0.6526	9.5778
0.9404	0.6479	9.5748
0.9386	0.6508	9.5647
0.9338	0.6574	9.5659
0.9266	0.6622	9.5736
0.9212	0.6652	9.5718
0.9218	0.6640	9.5706
0.9206	0.6670	9.5682
0.9200	0.6694	9.5653
0.9224	0.6652	9.5700
0.9152	0.6628	9.5700
0.9075	0.6658	9.5682
0.9063	0.6706	9.5653
0.9111	0.6688	9.5682
0.9164	0.6610	9.5700
0.9194	0.6616	9.5647
0.9272	0.6670	9.5623
0.9338	0.6664	9.5641
0.9326	0.6580	9.5635
0.9362	0.6592	9.5623
0.9398	0.6604	9.5665
0.9386	0.6550	9.5772
0.9386	0.6538	9.5736
0.9350	0.6550	9.5712
0.9326	0.6598	9.5700
0.9284	0.6658	9.5659
0.9242	0.6628	9.5682
0.9182	0.6592	9.5724
0.9188	0.6604	9.5712
0.9158	0.6676	9.5742
0.9105	0.6694	9.5790
0.9111	0.6670	9.5772
0.9158	0.6670	9.5718
0.9212	0.6700	9.5712
0.9200	0.6724	9.5682
0.9194	0.6688	9.5653
0.9230	0.6610	9.5718
0.9218	0.6598	9.5677
0.9314	0.6604	9.5682
0.9368	0.6544	9.5682
0.9392	0.6490	9.5647
0.9374	0.6532	9.5575
0.9356	0.6550	9.5653
0.9362	0.6556	9.5706
0.9314	0.6550	9.5653
0.9260	0.6550	9.5629
0.9218	0.6598	9.5641
0.9182	0.6622	9.5635
0.9135	0.6580	9.5682
0.9135	0.6616	9.5760
0.9135	0.6664	9.5706
0.9182	0.6676	9.5659
0.9194	0.6670	9.5688
0.9188	0.6658	9.5677
0.9218	0.6640	9.5742
0.9254	0.6616	9.5808
0.9266	0.6580	9.5784
0.9266	0.6520	9.5700
0.9302	0.6538	9.5694
0.9326	0.6562	9.5706
0.9338	0.6568	9.5647
0.9356	0.6544	9.5742
0.9326	0.6538	9.5772
0.9338	0.6568	9.5718
0.9314	0.6586	9.5706
0.9320	0.6592	9.5706
0.9308	0.6592	9.5688
0.9296	0.6604	9.5736
0.9254	0.6604	9.5712
0.9224	0.6604	9.5623
0.9200	0.6616	9.5688
0.9176	0.6646	9.5748
0.9170	0.6700	9.5694
0.9194	0.6670	9.5742
0.9188	0.6670	9.5718
0.9176	0.6688	9.5647
0.9176	0.6676	9.5659
0.9182	0.6694	9.5653
0.9206	0.6694	9.5641
0.9224	0.6622	9.5659
0.9236	0.6598	9.5659
0.9326	0.6592	9.5671
0.9326	0.6598	9.5694
0.9332	0.6592	9.5677
0.9302	0.6598	9.5623
0.9296	0.6592	9.5629
0.9260	0.6592	9.5665
0.9206	0.6616	9.5635
0.9236	0.6646	9.5635
0.9236	0.6646	9.5677
0.9182	0.6634	9.5665
0.9194	0.6652	9.5688
0.9170	0.6640	9.5724
0.9152	0.6688	9.5700
0.9182	0.6658	9.5700
0.9200	0.6604	9.5712
0.9212	0.6634	9.5724
0.9248	0.6664	9.5653
0.9278	0.6628	9.5736
0.9344	0.6616	9.5724
0.9332	0.6586	9.5677
0.9338	0.6586	9.5694
0.9362	0.6598	9.5677
0.9386	0.6610	9.5706
0.9338	0.6616	9.5796
0.9320	0.6616	9.5802
0.9272	0.6604	9.5718
0.9218	0.6604	9.5730
0.9200	0.6616	9.5730
0.9182	0.6646	9.5694
0.9141	0.6628	9.5665
0.9147	0.6622	9.5677
0.9164	0.6652	9.5665
0.9158	0.6622	9.5647
0.9158	0.6610	9.5682
0.9170	0.6640	9.5677
0.9188	0.6640	9.5665
0.9176	0.6634	9.5671
0.9194	0.6652	9.5629
0.9248	0.6646	9.5647
0.9242	0.6616	9.5724
0.9296	0.6568	9.5706
0.9326	0.6562	9.5718
0.9332	0.6550	9.5706
0.9320	0.6574	9.5671
0.9302	0.6568	9.5682
0.9272	0.6610	9.5688
0.9230	0.6640	9.5659
0.9206	0.6664	9.5665
0.9194	0.6658	9.5724
0.9188	0.6628	9.5694
0.9200	0.6634	9.5682
0.9194	0.6652	9.5682
0.9123	0.6670	9.5641
0.9081	0.6658	9.5611
0.9099	0.6628	9.5617
0.9135	0.6610	9.5682
0.9200	0.6592	9.5671
0.9254	0.6574	9.5647
0.9236	0.6610	9.5671
0.9242	0.6616	9.5629
0.9266	0.6616	9.5617
0.9314	0.6592	9.5677
0.9368	0.6610	9.5671
0.9356	0.6586	9.5712
0.9362	0.6568	9.5730
0.9308	0.6574	9.5718
0.9308	0.6580	9.5700
0.9266	0.6610	9.5706
0.9194	0.6640	9.5688
0.9176	0.6646	9.5700
0.9147	0.6634	9.5700
0.9194	0.6646	9.5730
0.9212	0.6610	9.5712
0.9200	0.6622	9.5718
0.9200	0.6646	9.5677
0.9188	0.6628	9.5677
0.9212	0.6634	9.5694
0.9194	0.6640	9.5665
0.9230	0.6634	9.5647
0.9308	0.6598	9.5635
0.9326	0.6586	9.5623
0.9302	0.6580	9.5671
0.9308	0.6610	9.5677
0.9320	0.6604	9.5682
0.9308	0.6604	9.5665
0.9308	0.6610	9.5647
0.9296	0.6574	9.5677
0.9272	0.6628	9.5700
0.9278	0.6634	9.5635
0.9242	0.6628	9.5617
0.9182	0.6634	9.5629
0.9218	0.6610	9.5682
0.9242	0.6622	9.5688
0.9230	0.6646	9.5718
0.9200	0.6652	9.5700
0.9164	0.6670	9.5659
0.9194	0.6676	9.5671
0.9200	0.6652	9.5682
0.9254	0.6628	9.5712
0.9284	0.6676	9.5700
0.9278	0.6670	9.5677
0.9242	0.6634	9.5682
0.9254	0.6622	9.5665
0.9314	0.6604	9.5635
0.9326	0.6622	9.5617
0.9236	0.6610	9.5611
0.9224	0.6598	9.5617
0.9224	0.6580	9.5659
0.9254	0.6616	9.5700
0.9260	0.6622	9.5706
0.9236	0.6604	9.5718
0.9278	0.6586	9.5694
0.9278	0.6562	9.5671
0.9266	0.6580	9.5653
0.9290	0.6610	9.5635
0.9266	0.6604	9.5617
0.9224	0.6610	9.5611
0.9236	0.6616	9.5605
0.9224	0.6616	9.5635
0.9248	0.6604	9.5712
0.9260	0.6586	9.5682
0.9236	0.6586	9.5641
0.9248	0.6604	9.5617
0.9308	0.6574	9.5641
0.9302	0.6562	9.5653
0.9290	0.6580	9.5629
0.9254	0.6622	9.5623
0.9230	0.6610	9.5641
0.9254	0.6610	9.5659
0.9284	0.6604	9.5688
0.9302	0.6616	9.5659
0.9278	0.6628	9.5688
0.9278	0.6610	9.5665
0.9260	0.6604	9.5694
0.9248	0.6616	9.5724
0.9224	0.6646	9.5671
0.9212	0.6634	9.5688
0.9218	0.6622	9.5682
0.9206	0.6610	9.5706
0.9194	0.6604	9.5647
0.9212	0.6592	9.5653
0.9218	0.6598	9.5635
0.9254	0.6634	9.5659
0.9254	0.6634	9.5623
0.9236	0.6616	9.5617
0.9260	0.6628	9.5635
0.9266	0.6634	9.5653
0.9278	0.6628	9.5647
0.9278	0.6622	9.5617
0.9278	0.6640	9.5617
0.9278	0.6658	9.5647
0.9242	0.6664	9.5671
0.9218	0.6640	9.5712
0.9206	0.6616	9.5706
0.9194	0.6610	9.5653
0.9206	0.6616	9.5629
0.9200	0.6616	9.5623
0.9242	0.6592	9.5629
0.9242	0.6616	9.5671
0.9230	0.6610	9.5694
0.9230	0.6598	9.5766
0.9224	0.6580	9.5760

