accelx	accely	accelz
1.0134	0.7537	9.5509
0.8207	0.6598	9.6197
0.9212	0.6502	9.6035
0.8243	0.6173	9.5946
0.9601	0.6927	9.5952
0.9182	0.6233	9.6149
0.9027	0.8076	9.5748
1.0433	0.6036	9.5216
0.9075	0.6102	9.6203
0.9811	0.6598	9.4695
0.9254	0.6820	9.5222
0.9045	0.6490	9.5539
0.9368	0.6939	9.5575
0.9045	0.6156	9.5952
0.8937	0.7962	9.6311
1.0540	0.5791	9.5180
0.9583	0.7214	9.6161
0.9218	0.5982	9.6705
0.9960	0.6538	9.5461
0.9117	0.7017	9.6095
0.9021	0.6245	9.6083
0.8722	0.6185	9.6131
1.0385	0.6616	9.5551
0.8626	0.7358	9.6023
0.9583	0.7322	9.6376
0.9410	0.6042	9.5976
0.8800	0.7166	9.4953
0.9781	0.5856	9.5545
0.9787	0.7107	9.6012
0.9320	0.6891	9.5952
0.9434	0.6556	9.6006
0.9099	0.6455	9.6526
0.9045	0.7119	9.6191
0.9404	0.6048	9.5617
0.9422	0.6562	9.6376
0.9918	0.5838	9.5599
0.9613	0.7023	9.6358
0.9428	0.5480	9.5862
0.9918	0.6496	9.4582
0.9374	0.6568	9.6580
0.8919	0.7406	9.5868
0.9846	0.6281	9.6053
0.8566	0.6814	9.5742
0.9248	0.6437	9.6167
0.8746	0.6532	9.5030
0.9296	0.7059	9.6197
0.8847	0.6742	9.5264
0.9404	0.6538	9.5904
0.9517	0.7478	9.5796
0.9673	0.6508	9.6478
0.9601	0.6054	9.5521
0.7705	0.6054	9.6071
0.9440	0.6646	9.5001
0.9374	0.7484	9.6562
0.8794	0.6185	9.5796
0.9882	0.6820	9.5288
0.9278	0.7059	9.6012
0.9272	0.7436	9.6137
0.9972	0.6377	9.5545
0.9583	0.6544	9.4749
0.9182	0.6694	9.6777
0.9266	0.5898	9.6346
0.9392	0.7071	9.6215
1.0056	0.6467	9.5383
0.9583	0.6754	9.6233
0.8961	0.6921	9.5718
0.9266	0.6066	9.6275
0.8710	0.7591	9.5030
0.9601	0.6030	9.5599
0.8357	0.6568	9.5898
0.9266	0.7340	9.5036
0.9170	0.5707	9.4941
0.9942	0.7316	9.4995
0.9302	0.6520	9.6227
0.8070	0.6556	9.5605
0.9577	0.5677	9.5772
0.9164	0.6999	9.4630
0.9278	0.6873	9.5868
0.9493	0.5671	9.6215
0.8524	0.7448	9.6035
0.9846	0.6365	9.5641
0.9416	0.7370	9.7076
0.8943	0.6837	9.6197
0.9948	0.6227	9.5850
0.9559	0.6508	9.6000
0.9511	0.6473	9.5838
0.8931	0.6604	9.5736
0.9727	0.5850	9.6173
0.8644	0.6897	9.5647
0.9906	0.6245	9.5054
0.9344	0.6778	9.6299
0.9691	0.6329	9.5330
0.9619	0.7077	9.6311
0.8261	0.7771	9.5808
0.8865	0.6879	9.5066
0.9446	0.5821	9.5288
0.8441	0.6473	9.6640
0.9398	0.7460	9.5790
0.9715	0.6891	9.5862
1.0235	0.6831	9.7106
0.9386	0.7029	9.5623
0.9936	0.6700	9.5982
0.9511	0.7053	9.6705
0.8752	0.5928	9.6927
1.0301	0.6353	9.5605
0.8644	0.6257	9.5736
0.9499	0.7513	9.5228
0.8459	0.6383	9.4821
0.9529	0.6508	9.4989
0.9284	0.6622	9.5162
0.9709	0.7693	9.5742
0.8584	0.6257	9.6388
0.9290	0.6951	9.6562
0.8961	0.6550	9.6203
0.9499	0.7101	9.5048
0.9446	0.6514	9.6915
1.0570	0.5521	9.5724
0.9822	0.6383	9.4917
0.8841	0.6885	9.6436
1.0020	0.7220	9.7005
0.9679	0.4810	9.7286
0.8752	0.7507	9.6717
0.9571	0.6449	9.5551
1.0044	0.6425	9.5928
0.8865	0.6437	9.5778
0.9093	0.5456	9.5922
0.8800	0.7292	9.5694
0.9075	0.7119	9.5904
0.8937	0.6784	9.6167
1.0235	0.7196	9.4672
0.8710	0.7286	9.5952
1.0169	0.7388	9.5156
0.9607	0.5773	9.5934
0.9464	0.5629	9.6029
0.9392	0.6371	9.5090
0.8949	0.7244	9.6939
0.8309	0.7095	9.5647
0.9589	0.6209	9.5300
0.8554	0.6592	9.6077
0.9870	0.7041	9.5557
0.8991	0.6114	9.6107
0.9912	0.7041	9.4737
0.8656	0.6891	9.6023
0.9350	0.7651	9.5730
0.9314	0.7244	9.6012
0.9404	0.5838	9.6364
0.9984	0.6634	9.6448
0.9093	0.6580	9.5114
0.9619	0.6760	9.6263
0.8794	0.6024	9.7824
0.9954	0.6084	9.5180
0.9302	0.7400	9.4719
0.9631	0.6927	9.6113
0.9218	0.5539	9.6125
0.9697	0.6855	9.6699
0.8327	0.6861	9.6197
0.9188	0.6927	9.5802
0.9356	0.6700	9.6257
1.0110	0.5803	9.4743
1.0690	0.5821	9.4923
0.9416	0.6999	9.5832
0.8273	0.6676	9.5575
0.9685	0.6042	9.5928
0.8620	0.6855	9.5671
0.9380	0.7645	9.5030
0.9308	0.6891	9.4761
0.9529	0.6437	9.4672
1.0032	0.6120	9.5946
0.8028	0.7627	9.6586
0.9547	0.7119	9.7070
0.9374	0.5892	9.6873
0.8542	0.7274	9.7226
0.9290	0.6825	9.3475
1.0439	0.7071	9.6789
0.9230	0.5497	9.6029
0.9033	0.5605	9.5060
0.9434	0.6526	9.5563
0.8524	0.8644	9.6502
0.8357	0.6927	9.6107
0.8560	0.6221	9.6771
0.9326	0.6371	9.6813
0.9523	0.7190	9.5419
0.9727	0.6275	9.6376
0.9954	0.5647	9.6652
0.9105	0.6915	9.5521
0.9583	0.8225	9.5479
0.8536	0.6831	9.4504
0.9834	0.5826	9.5359
0.9027	0.6383	9.5210
0.9517	0.6730	9.6131
0.8883	0.7274	9.7914
0.9416	0.6401	9.5581
0.9338	0.5354	9.5868
0.9972	0.7382	9.5976
0.9380	0.6814	9.5868
0.9344	0.6257	9.5898
0.8889	0.5874	9.7064
0.8985	0.7202	9.5090
0.9793	0.7585	9.6275
0.9416	0.6993	9.6006
0.9511	0.5497	9.5754
1.0953	0.5892	9.4959
0.8279	0.6275	9.5796
0.9655	0.7071	9.7076
0.7478	0.7029	9.4977
0.9404	0.7280	9.5712
0.8219	0.8100	9.6616
0.9787	0.5671	9.5252
1.0935	0.4768	9.5940
0.9822	0.6371	9.5814
0.9314	0.7633	9.6454
0.9147	0.7268	9.5677
0.9129	0.6915	9.6735
0.9009	0.7083	9.6197
0.9194	0.6688	9.6430
0.9876	0.6927	9.5880
0.9164	0.5779	9.5712
1.0265	0.5348	9.4911
0.9470	0.6688	9.5647
0.8967	0.7507	9.6879
0.8740	0.5743	9.6933
0.9984	0.5330	9.6083
1.0169	0.6796	9.4947
0.9709	0.6215	9.5270
0.8913	0.6951	9.4510
0.9015	0.5773	9.4301
0.9051	0.7029	9.5336
0.8453	0.6461	9.6006
0.9846	0.7711	9.5318
0.9314	0.5749	9.6616
0.8841	0.7495	9.5491
0.8871	0.7561	9.6879
0.9493	0.5737	9.6412
1.0020	0.6341	9.6023
0.9972	0.6132	9.5988
0.9607	0.6401	9.6496
0.9039	0.6263	9.6981
0.8602	0.6885	9.5431
1.0666	0.7346	9.5772
0.9517	0.6706	9.7914
0.9811	0.6574	9.6771
1.0373	0.6843	9.6508
1.0098	0.5037	9.5587
0.9535	0.7178	9.6436
0.7884	0.7478	9.5641
0.9924	0.5988	9.6065
0.8435	0.7537	9.5736
0.9799	0.6837	9.5282
0.9601	0.6538	9.4642
0.9482	0.6150	9.6137
0.9912	0.5605	9.4785
0.8788	0.7202	9.6777
0.8578	0.7621	9.5647
0.8429	0.6383	9.5365
1.0169	0.6239	9.5479
0.9200	0.7603	9.5796
1.0642	0.6766	9.5108
0.8752	0.7149	9.4785
1.0307	0.5928	9.5270
0.8405	0.6132	9.4576
0.9811	0.5886	9.6646
0.9260	0.6508	9.7154
0.9697	0.6628	9.5389
0.9212	0.7501	9.6215
0.9978	0.6903	9.6167
0.9529	0.7340	9.6478
1.1121	0.5157	9.6556
0.9775	0.6018	9.5724
1.0283	0.5797	9.6293
0.9338	0.7083	9.5419
0.8853	0.8255	9.5832
0.8357	0.7011	9.6735
0.9697	0.6796	9.5030
0.9529	0.7609	9.5629
1.0528	0.6144	9.6687
1.0343	0.6562	9.5497
0.9631	0.7364	9.5270
0.8590	0.6825	9.7615
0.8447	0.6042	9.5682
0.9290	0.7065	9.6556
0.9260	0.6628	9.6903
0.9607	0.7442	9.5617
0.8345	0.5821	9.5886
0.9547	0.7214	9.5898
0.9715	0.6048	9.5904
0.8512	0.7107	9.7944
0.9284	0.7119	9.6173
0.8638	0.7011	9.5509
1.0140	0.6461	9.4737
0.8859	0.7442	9.6568
0.9799	0.6305	9.6454
0.9021	0.7047	9.6233
0.9882	0.6371	9.5102
0.8692	0.7005	9.6065
0.9709	0.6514	9.7495
0.9248	0.6814	9.5060
0.9631	0.6724	9.4983
0.8812	0.7131	9.5228
0.9858	0.6371	9.5754
1.0235	0.6604	9.4325
0.9499	0.7460	9.6029
0.7872	0.7842	9.4588
0.9398	0.7884	9.5425
0.8291	0.6664	9.5054
1.0349	0.6156	9.5431
0.9458	0.7651	9.5395
1.0002	0.6185	9.4983
0.9846	0.6760	9.5527
0.8889	0.6808	9.5635
0.9374	0.6574	9.4187
0.7621	0.8662	9.5186
1.0295	0.6275	9.4803
0.9236	0.5647	9.5934
1.0929	0.6574	9.4755
0.9392	0.6490	9.4815
0.8548	0.7609	9.5479
0.8877	0.7196	9.6747
0.8046	0.7346	9.7076
0.8889	0.7561	9.5084
0.8913	0.6646	9.5461
1.0708	0.6209	9.5425
1.0391	0.5587	9.9409
0.8441	0.6939	9.7286
0.8937	0.7567	9.7304
0.8195	0.5587	9.8398
1.1480	0.6999	9.5401
0.8405	0.6311	9.4325
0.9099	0.6951	9.4857
1.1037	0.7041	9.4983
0.7489	0.6963	9.5910
1.0756	0.7178	9.5533
0.7107	0.7711	9.6927
0.9912	0.4552	9.7011
1.0014	0.7549	9.5455
0.9194	0.5390	9.5688
0.9852	0.7657	9.5706
0.8536	0.7657	9.5042
0.8351	0.6078	9.5988
1.0492	0.7489	9.5982
0.8309	0.5037	9.4851
1.0140	0.7848	9.5078
0.8973	0.7615	9.6388
0.8997	0.6790	9.7082
0.9978	0.7071	9.5443
0.9398	0.5282	9.5013
1.0229	0.7250	9.3816
0.9218	0.5976	9.4761
1.0684	0.6066	9.7573
0.8584	0.7388	9.5659
0.8788	0.6915	9.7292
0.8423	0.7448	9.5730
1.1312	0.4158	9.5599
0.9661	0.6550	9.6664
1.1468	0.4481	9.6394
0.7454	0.8106	9.7782
0.7478	0.8997	9.4103
1.0630	0.7059	9.6640
0.8530	0.5713	9.6317
1.1671	0.6078	9.4492
0.8895	0.5527	9.9284
1.1426	0.7358	9.4283
0.7047	0.7621	9.7567
0.9553	0.5139	10.0803
0.9583	0.7137	9.5862
0.7998	0.5198	9.3230
1.1647	0.3087	9.7483
0.8279	1.0630	9.5509
1.0098	0.5892	9.6149
0.8716	0.5192	10.0534
0.7412	0.9697	8.9527
1.1545	0.5767	9.4414
0.8130	0.4947	9.9308
0.8865	0.8871	9.4438
1.0032	0.5474	9.6418
0.8752	0.6867	9.6394
0.8847	0.9505	9.1118
1.1216	0.2806	9.7322
0.8363	0.8315	9.6089
0.7681	1.0092	9.2183
1.0810	0.8459	9.7782
0.8955	0.5276	9.3649
1.1677	0.5420	9.3804
0.8417	0.5755	9.7417
0.5222	0.9882	9.3308
1.0122	0.8106	9.5066
0.9063	0.2285	10.3872
0.9404	0.7681	9.4827
1.2012	0.4199	9.7022
0.8560	0.7753	9.7459
0.5677	0.9811	9.0329
0.8895	0.5462	9.5856
0.8429	0.6867	9.4713
1.3178	0.9099	9.1860
1.2419	0.4851	9.8404
0.6688	0.6329	9.6329
0.7597	0.6586	9.2787
0.7699	0.6078	9.9200
0.8782	0.8578	9.0921
1.3280	0.5157	9.7698
1.1390	0.6066	9.7824
0.7543	0.8919	9.2853
0.5964	0.4564	9.2805
0.8189	1.0163	9.3164
1.0510	0.6682	9.5324
1.4459	0.4307	10.0277
1.0050	1.1503	9.5282
0.5402	0.4134	9.6723
0.7902	0.5994	9.0598
0.7352	0.6909	9.6448
1.3483	0.6682	9.9906
1.2694	1.0810	9.5659
0.9458	0.5928	9.9900
0.7071	0.4122	9.6753
0.7101	0.8722	9.0622
0.7053	0.5551	9.8841
1.1599	0.8351	9.4498
1.1563	0.6658	9.6867
0.9452	0.6658	9.6197
0.8991	0.8494	8.9862
0.7232	0.4780	9.6717
0.8177	0.9278	9.2153
1.0409	0.8034	9.9152
0.9033	0.6712	9.7525
1.1737	0.4660	9.3469
0.8333	0.5007	9.7573
0.8584	0.8016	9.3936
0.7573	0.7561	9.8237
1.0128	0.4935	9.5742
1.2024	0.5593	9.4199
0.8877	0.5354	9.9122
0.8297	1.1587	9.2309
0.5797	0.6849	9.8159
1.0768	0.4487	9.6083
1.1456	0.8471	9.6364
0.9362	0.5545	9.9798
0.8369	0.9063	9.5342
0.6084	0.2788	9.3661
0.8740	0.3494	9.2494
1.1061	0.7956	8.9479
1.1180	0.5880	10.0917
1.3483	1.1545	9.3475
0.7184	0.3781	9.7782
0.6526	0.7902	9.1160
0.8650	0.5988	9.8165
0.8901	0.0150	10.2466
1.6145	1.2359	9.3427
0.5270	0.4116	9.9966
0.8040	0.8722	8.8713
0.6161	0.4283	9.6885
0.8608	-0.0221	9.3284
1.4453	1.4770	9.0209
0.3440	0.4433	9.9678
1.3322	1.1019	8.5220
0.5635	0.6437	9.6454
1.1844	0.7591	8.7427
1.3364	1.1623	9.4008
0.5408	0.4163	10.2047
1.4722	1.0044	8.8606
0.5061	0.4965	9.9481
0.9679	0.9422	8.9342
0.7149	0.7597	9.6006
0.9278	0.5414	9.7489
1.3818	0.7501	9.7944
0.7352	0.2255	10.1988
0.8967	1.1456	8.8283
0.5372	0.6867	9.5318
1.0289	0.8877	9.4151
1.5601	0.5043	10.1784
1.0839	0.0808	10.3567
1.4895	1.0241	8.5758
0.1603	1.1354	9.6921
1.1725	0.4989	9.3679
1.0762	0.2177	10.4063
0.9840	0.2429	9.7651
0.6467	1.3789	9.4337
0.5647	0.5605	9.5018
1.1378	0.8698	9.5988
1.0911	-0.1531	10.4321
1.1366	0.9129	9.7040
0.3673	0.5982	9.8668
0.4463	0.7531	9.4767
1.0349	0.4355	9.7381
1.0588	0.1388	10.1336
1.4142	0.6024	9.5611
0.8183	0.9350	9.6999
0.9703	0.9326	8.8301
0.8764	0.2985	9.5389
0.8028	1.0325	9.3128
1.0971	0.7083	9.6065
1.0881	0.9344	9.3912
0.6831	0.6682	9.5455
0.9075	0.2279	9.0203
1.1109	0.9679	9.7944
0.4576	0.2554	9.8685
1.2419	0.9858	9.3732
0.6437	0.5264	10.1557
1.2544	0.7687	9.3026
0.0945	0.9362	10.0791
1.2149	0.8530	9.0137
0.9105	0.5976	9.3661
1.1294	0.6652	9.0747
1.0241	1.2646	9.3020
0.5073	-0.2160	9.9714
1.2664	1.4752	9.5138
0.6114	-0.0413	9.9122
1.6145	0.9434	9.5108
0.1466	1.0534	9.8464
1.4106	1.1659	8.6781
0.8686	0.9458	9.4331
1.1497	0.1848	10.3172
1.0851	0.9811	10.6510
0.0993	0.1567	9.9762
1.1707	1.4345	9.5868
0.4241	-0.2530	9.9834
1.5242	0.1364	10.2705
0.7304	0.5306	9.5413
1.3388	1.4650	9.3421
0.2004	0.6263	9.1028
1.2490	0.3523	9.0329
0.9398	0.5001	10.0055
1.1049	-0.0437	9.7513
1.2586	1.9005	9.9009
0.7029	0.1992	9.5150
1.2227	0.7789	10.1060
0.3494	0.7501	9.8129
1.2473	0.3619	9.3756
0.6239	0.8082	9.3589
0.9739	0.8907	9.7340
0.9464	0.4014	9.9050
0.6808	0.6323	9.9409
1.0325	0.4804	9.3026
0.9308	0.8889	9.4797
0.8841	0.5737	9.4959
0.8279	0.8171	9.2351
1.1497	0.6820	9.5024
1.1336	0.5067	9.4390
1.4955	0.7214	9.9732
0.4546	0.6754	9.1866
1.2401	1.4016	8.8055
0.1956	0.6784	9.7369
1.5075	0.0646	9.1034
1.3609	0.9015	9.7968
0.3147	1.0343	9.4055
0.5025	0.8183	9.3696
0.9230	0.9619	9.5671
1.4142	-0.2010	10.2412
0.5826	0.4199	9.6598
0.9876	1.8036	8.9784
0.6437	0.5683	9.0699
0.9828	0.1699	10.1018
1.1533	0.0030	9.5976
1.5930	1.1970	9.0125
0.2859	0.9906	9.1567
1.5649	0.7687	9.3792
0.5671	0.4020	9.9170
1.1515	0.2130	9.2488
0.5426	1.3095	10.1916
0.7478	0.8327	9.4360
1.0080	0.3709	10.9447
0.7412	0.3242	9.4701
1.5302	0.9631	9.9912
0.7986	0.5043	9.6813
0.8004	0.7262	9.7046
0.4768	0.2877	9.6221
0.9577	0.9374	8.8408
0.5468	0.6897	9.0670
2.0674	0.2213	8.9348
0.3739	1.0947	9.5383
1.5882	0.3840	8.8737
0.1813	1.2305	8.7900
1.2981	0.3900	9.6442
0.4911	0.7549	8.6620
0.5270	1.5063	8.5734
0.6054	0.7298	8.4287
1.3914	1.3131	9.8554
1.2377	-0.6167	9.5940
1.2927	1.0062	9.7842
0.6592	1.6229	9.2051
0.8620	0.8375	9.2961
0.7172	0.1567	10.7306
0.9559	-0.2614	9.9098
1.4919	1.7444	10.1126
-0.0078	0.1908	8.5298
1.0774	1.1761	10.2239
0.6437	-0.0066	10.0522
1.0313	0.2554	9.5898
0.6012	1.0397	9.0622
0.7615	1.1037	9.2638
0.9493	0.6173	9.3750
1.3101	0.2219	9.5383
1.1659	0.6616	9.6502
1.2191	0.9954	9.6161
0.6957	0.5922	9.0927
0.8500	1.0612	9.9589
1.1306	0.1400	9.2751
1.2658	1.0110	10.5954
0.7113	-0.2608	9.4857
1.1629	1.0792	9.9852
0.6425	0.6419	10.0516
1.3029	0.7292	9.8261
0.9296	0.2393	10.1120
1.1599	0.4498	9.4797
0.5025	1.6074	9.1525
1.1222	0.5037	9.1190
1.1342	0.1478	10.3094
1.3621	0.5168	10.2011
0.2273	1.4608	9.3912
1.1079	1.5045	9.6789
0.4373	0.8734	8.9312
1.9765	-0.0897	10.6713
0.7005	0.3661	9.7680
0.9517	1.2987	9.1459
0.4128	1.2413	9.0125
0.9697	0.3667	9.2715
1.5015	0.1944	10.8448
1.2825	0.0209	9.1256
1.2179	1.1713	10.1012
0.8883	0.2213	9.6317
0.7836	0.7358	10.0420
0.8877	0.7472	9.8901
0.6150	0.8913	8.7511
0.7968	0.6814	10.3794
1.2975	1.1611	8.9994
0.9864	0.7029	9.8458
1.4853	1.1497	10.0827
0.1699	-0.1178	9.3152
0.8351	0.6748	9.6741
1.1145	0.3093	9.3475
1.4895	0.8841	10.1036
0.8279	-0.1083	9.8039
0.7651	0.7250	9.6179
0.7968	1.4997	9.6741
1.3113	0.7537	8.8402
1.3741	-0.2177	10.3728
2.1434	0.4038	10.6384
0.7920	1.6899	9.8285
1.3591	1.1306	10.0737
0.5162	0.4391	9.5688
1.8167	0.1705	10.5583
0.3817	0.0616	9.8751
0.8219	0.9123	10.2646
0.6215	0.7400	10.5074
1.6768	0.4600	10.1844
1.2287	0.5874	10.5798
0.9858	0.4726	9.5479
1.3095	1.3244	9.8380
1.2514	0.6867	10.0247
1.1850	0.0150	9.8985
0.6269	1.0738	9.2943
1.1408	0.7160	9.5324
0.6700	0.7286	9.9206
0.9380	0.3697	9.7573
0.8082	0.7208	9.3493
1.3944	0.8764	9.7704
0.5390	0.3870	8.8737
1.3358	0.8088	9.5419
0.5593	0.5491	9.9523
1.0552	0.6018	9.9032
0.8626	0.6156	9.4582
1.0469	0.6377	8.3629
0.7998	0.7184	9.1316
1.2006	0.5055	9.4869
0.7424	0.8064	9.2626
0.6592	0.8776	9.3015
-0.0401	0.5785	8.9210
1.0624	0.7400	9.4642
1.1773	0.6431	9.9003
0.9009	0.4612	9.1495
0.1980	1.6205	9.1328
1.1073	0.3601	9.4923
0.9697	0.0407	8.8414
0.7232	0.3164	9.6909
0.3799	1.0552	9.5784
0.5659	1.1330	9.0490
1.4022	-0.4457	10.1252
1.1145	0.2118	10.0205
0.8405	1.1384	9.7483
0.9320	1.3968	9.5814
1.2981	0.4199	9.2841
0.7430	0.4092	9.9966
0.9517	0.1418	9.2697
0.9673	1.6439	10.0546
1.1521	-0.0401	9.2883
0.4056	0.7316	10.0301
0.8943	-0.1190	9.5060
0.8548	1.2861	9.6676
0.8369	0.3811	9.4384
0.7047	0.9290	9.9427
1.2658	0.7460	9.2470
1.0451	0.7729	10.3471
1.1468	0.1986	8.9838
0.5276	1.6247	9.9403
0.9505	0.6090	9.2811
0.8219	0.6197	10.0229
0.7495	0.7053	9.5671
0.4977	0.8040	9.2249
1.6032	0.1484	10.5738
0.9057	-0.0736	9.9080
1.5344	0.2788	9.6191
1.0893	1.7222	9.5892
1.1150	1.0361	9.6335
1.0469	0.3206	10.5092
0.9661	0.4690	10.5296
1.0056	1.2102	8.6374
0.7316	1.6474	9.3696
1.0056	-0.3021	10.6516
0.7011	-0.2530	10.1976
0.7741	1.1414	8.9886
0.6933	1.4279	8.2223
0.7747	-0.2004	9.9092
0.5013	0.6191	9.7788
1.6140	1.0181	9.1082
0.9338	0.8638	9.5575
0.8285	1.0630	9.3619
0.7406	0.9123	10.0660
0.8375	0.2082	10.0660
0.4546	1.0648	9.3355
1.1695	0.7777	9.4217
0.6275	1.0690	9.4672
1.1695	0.6257	8.8857
1.1456	0.6060	9.6568
1.0020	0.3870	9.4253
0.6018	1.0618	9.4295
0.6975	0.6419	9.4983
1.0606	0.2399	9.8961
1.0839	0.2680	10.1365
1.1497	1.2425	9.5060
0.7597	1.2389	9.5138
0.7962	-0.3535	10.0516
1.1474	-0.7071	10.0241
0.7860	2.4018	9.6723
0.8136	0.9063	10.0953
0.8823	0.2602	9.9332
1.1264	0.6514	9.3690
0.7615	0.9087	9.3876
0.1400	0.7137	8.4789
1.0666	1.1497	9.5330
1.5787	-0.3033	8.9922
0.6658	1.3974	8.9025
0.3565	1.8855	9.1836
1.1791	0.2315	9.9547
0.7196	0.4038	9.1926
0.5976	1.2377	9.3020
0.7328	0.5779	9.3344
0.9643	0.7041	9.3744
0.8794	0.5330	9.5892
0.9344	0.5031	9.8159
1.3376	0.8255	10.3471
1.3466	-0.1842	9.5371
1.0863	1.1635	9.5138
1.2927	0.6514	9.4271
0.8590	0.1364	9.0406
1.1031	0.9757	9.7716
1.2323	0.4349	10.1132
0.8070	0.4684	9.3098
1.3681	1.0056	9.5820
0.4660	0.9667	9.2321
0.7304	1.1521	9.1806
0.4738	1.2335	10.0725
1.3818	0.0796	9.6843
0.9152	0.6927	9.8488
0.1226	1.0445	8.8133
1.5906	1.0995	9.4887
1.3334	0.2393	9.9720
0.7298	1.0199	10.2263
0.1729	0.9386	9.9433
1.3669	0.0485	10.5290
1.1420	-0.2967	10.1174
0.8183	0.8488	9.9170
0.6353	1.1366	9.4743
1.6463	0.3063	10.0570
0.8566	0.3966	10.1102
1.0217	1.3184	9.6610
0.3607	1.1121	9.5778
0.7860	0.3069	9.9990
0.7238	0.2381	9.6358
0.8255	1.1551	8.9647
0.8106	1.2628	9.3445
1.0445	0.4750	9.8817
1.0056	-0.2189	9.6418
0.8219	1.1420	10.2323
0.5755	1.1545	9.1154
0.4780	0.0538	9.2703
0.8483	0.8345	9.4193
0.7681	0.2907	9.7124
0.9200	-0.0742	8.9946
0.4546	1.0307	8.6380
0.9817	1.4740	7.4733
0.7968	1.0863	7.5015
0.7232	0.3236	8.4771
0.4660	1.0283	9.4815
1.4674	0.4050	9.3696
1.2562	0.8973	9.1196
1.1689	0.3727	8.7894
1.0792	1.4471	9.2847
0.2704	1.0259	9.7956
1.0361	-0.2518	10.2628
0.8841	-0.3727	10.3447
0.9093	1.3771	9.1728
0.3984	1.0008	8.5172
1.0433	-0.2500	10.4147
0.4331	0.1274	10.0785
0.9254	1.1055	9.9236
1.0558	0.0802	8.9246
1.6552	0.1860	10.5876
1.1497	0.6837	9.1854
0.8578	1.0307	10.1180
0.6167	1.1402	8.9108
1.1880	0.9817	9.1118
1.7336	0.5055	9.3391
1.0211	-0.0401	10.1635
0.4146	0.9260	10.0875
1.2520	0.5438	10.5158
1.1623	1.1946	8.6380
-0.0820	0.8429	9.6370
1.0780	0.4923	9.3529
1.1904	0.2764	10.4081
1.1276	0.2782	9.9302
0.8213	0.5809	9.9391
0.7866	1.0558	8.4496
1.0469	1.0403	9.9493
0.8387	-0.0909	10.5547
1.1007	0.3589	10.2221
1.2449	0.0209	9.8859
0.8219	0.9320	8.6440
0.7501	-0.1107	8.8857
1.1934	1.2155	9.5874
0.4822	0.6311	9.6550
-0.1083	1.0068	8.3108
1.1659	1.1497	9.1866
1.0786	0.3470	8.9461
1.2772	0.9176	9.1603
0.7753	2.1140	7.9130
1.4877	1.0229	9.1848
1.3256	0.0538	8.8109
0.6191	2.0393	9.2697
0.4409	1.0080	8.3132
1.3507	0.1232	9.2045
1.1456	0.5294	9.0041
0.2100	0.7675	8.6285
0.8261	1.1186	8.1996
1.2604	0.7824	9.3774
0.5545	0.1460	9.7232
1.3651	1.0845	9.4989
1.1563	0.6293	9.5934
1.1838	0.7358	9.8781
1.0241	1.1665	8.5453
0.6449	1.3836	9.3649
0.6742	0.8429	9.2063
0.5557	0.8249	9.6352
0.6724	0.6263	8.9802
0.7436	0.4391	9.9840
0.8429	-0.2261	9.7268
1.1432	1.8227	10.2993
1.0863	0.1346	8.8839
1.4853	0.3356	10.2472
0.6574	1.0660	8.9832
0.5581	1.2682	9.1369
1.4907	0.3105	9.1860
0.8177	0.2201	9.5790
0.8058	1.0445	9.6035
0.6514	1.1318	8.8468
0.8853	-0.3434	10.2352
0.3655	0.0162	9.1962
0.8219	1.5278	8.1098
0.8118	1.1731	8.8935
0.8303	0.0562	9.2829
0.6754	0.8417	9.7489
0.7801	1.3154	9.0520
1.0397	0.0227	9.5760
0.6604	-1.0475	9.5359
1.1922	1.9298	8.5687
0.4259	1.3376	8.9808
0.4816	0.3517	8.9545
0.3129	0.8812	8.4723
0.2806	-0.3344	8.5202
0.9260	-0.6389	9.5455
0.5844	1.2305	9.2656
1.4566	1.8161	8.2911
1.6929	0.8034	8.1409
0.9452	0.6616	9.3050
0.1232	1.4118	9.9009
0.7627	0.4959	9.8416
0.5444	-0.2907	8.8845
1.0935	0.3511	7.8143
1.2712	0.8650	9.0107
1.5559	0.6042	10.0031
0.7723	0.8566	10.0103
0.7801	1.3244	8.9359
0.3398	1.2389	8.0931
0.9123	-0.1322	8.9563
0.6820	0.3523	8.7439
0.6927	1.4022	9.3804
0.3517	1.1300	9.4408
1.2317	-0.4875	9.5216
0.9458	0.2118	9.9858
0.8518	1.1719	8.7230
0.6066	0.8213	9.4049
1.3681	1.1797	9.2464
0.6670	1.3944	9.7579
1.1468	0.8201	9.2027
0.8423	0.7741	8.9700
1.1085	-0.2177	10.4632
2.0040	0.3063	9.5844
0.3888	1.5757	9.8410
1.1031	1.0355	9.3308
1.0020	0.5055	9.1214
0.5037	0.6353	9.7220
1.1085	0.7986	10.4368
0.9188	0.4307	9.5276
0.9834	0.4074	9.9780
0.8177	0.4696	8.7469
1.1904	1.0726	8.7661
0.6096	1.0690	8.8121
0.7603	0.9912	9.4169
1.1121	-0.3147	9.2255
0.4445	1.1091	9.4241
0.6742	1.0929	8.9198
0.8148	0.1507	9.1800
0.9452	0.9266	9.7615
1.1898	0.1328	9.1872
0.8524	1.0642	8.9820
0.9637	0.5755	8.9748
1.5440	-0.9248	9.1812
1.0851	1.1258	9.2285
0.7998	1.6732	9.2303
1.3555	-0.9649	10.4919
0.9978	-0.2566	9.2913
0.5677	1.5063	9.0382
0.7753	0.5797	9.0598
1.1318	-1.2574	10.1557
1.0367	2.5023	9.5336
1.1910	0.7693	8.8905
0.9039	0.2267	10.1641
0.0736	0.5312	9.7896
0.3182	0.0467	9.8255
0.9170	1.0588	10.6271
0.5079	0.1466	9.5820
0.9470	1.0845	10.4859
0.5264	0.6778	9.0652
0.9093	-1.0403	10.6492
1.4447	0.8806	9.7675
1.4243	0.5480	8.7128
1.3460	0.8034	8.2995
1.8048	0.5521	8.9001
1.2634	2.0267	9.2703
0.8991	0.5862	10.0432
0.6825	-0.9027	9.8955
0.0497	0.7687	10.1964
0.2195	1.0433	9.1896
1.3854	-0.8363	9.5252
1.3148	1.5344	8.9838
1.5248	1.5846	8.3850
0.6849	2.5507	8.1373
0.8788	0.4217	9.9678
-0.0102	0.3476	10.5696
0.7645	0.7860	9.1040
1.1462	-0.8829	10.0612
0.5115	-0.0766	9.9349
1.1091	1.8843	8.8719
1.4070	0.9392	9.4983
1.6014	0.0120	10.4805
1.0899	-1.2963	9.8877
1.3579	1.9926	8.6398
0.1418	1.3729	8.3114
0.4008	0.2405	10.2544
1.1408	1.1976	8.9330
0.5162	0.3374	8.5525
0.9912	0.1454	10.3764
-0.1023	1.5380	9.5168
0.3709	0.5276	9.4151
1.8293	0.6173	9.1184
1.0780	-0.0311	9.4474
1.6630	1.9741	9.9613
0.8728	1.0367	9.5862
1.5816	1.2431	9.6335
1.3160	0.2973	10.5116
1.1665	-0.1077	9.9308
1.2341	1.4991	8.9772
0.7519	0.2788	9.6849
0.9326	0.6927	8.7702
0.3787	2.2391	9.2267
1.5308	-0.4971	9.3230
1.2347	0.2381	10.0701
-0.1549	1.6917	9.1663
1.5009	1.1683	9.7878
0.9284	0.4881	9.1597
0.6508	1.9083	8.9276
0.3667	1.7791	9.2004
1.2748	0.4152	10.5786
0.6658	0.0257	9.2027
0.8411	1.0732	8.9952
1.0983	0.8710	8.7421
0.8052	-0.0586	9.8656
1.1509	0.9338	9.0813
1.1162	1.4153	8.4568
1.5362	0.3350	9.7549
0.8602	0.3709	9.3200
1.0373	0.7238	8.7326
0.4887	1.2622	8.6566
0.3386	-1.2610	9.0089
1.2191	2.4861	8.7164
0.1777	1.2269	7.9555
1.2144	-0.0179	7.7383
0.7848	1.4112	9.4863
0.5127	0.3003	9.6131
0.8746	0.3278	8.6674
0.6676	0.0389	8.3222
1.0193	1.5111	9.0466
1.3190	0.6245	8.9635
1.3543	0.4379	9.6143
0.2273	1.8401	9.2901
1.1312	1.0241	8.7834
0.7256	-0.4223	8.9084
1.0457	0.4391	8.9288
0.6538	1.6415	8.2707
0.2536	1.7940	8.9659
0.9392	0.0269	9.1322
0.6538	0.3422	9.5581
0.8829	1.5679	9.1459
1.2275	-0.4289	10.3878
0.8692	-0.8931	9.7740
0.8949	2.5783	8.3497
0.7089	0.8219	8.8582
0.8704	2.0548	9.2111
1.4662	1.1761	9.6017
1.1450	0.8124	9.7812
1.7761	0.4457	10.4422
0.4612	0.1484	10.4470
1.0439	0.0712	9.5342
0.6514	0.1496	9.4289
0.2441	0.0873	9.3529
1.1928	0.8518	8.9300
1.2449	1.1485	9.2249
1.2664	0.6197	9.9613
0.9380	1.0636	9.9481
1.4829	1.3669	9.4570
1.4620	0.3739	9.6251
0.8536	-0.7759	9.7393
0.6365	1.4877	8.3066
1.0403	1.2628	9.3930
1.2030	-0.5103	9.8177
0.4666	0.9535	9.7896
0.9141	1.5673	8.5184
0.9368	-0.1513	10.8077
0.8560	0.0694	9.9451
0.6209	1.9741	8.3467
1.5942	0.6604	7.5601
0.7819	1.5990	8.4562
1.2742	1.0899	9.0532
1.6546	1.4261	9.7028
1.0965	0.5420	9.4025
1.0325	-0.3553	9.7034
0.5258	0.6084	9.6179
0.2375	0.3476	8.9724
0.5276	-1.5039	9.1687
0.7675	3.0460	8.4951
0.4439	1.9699	7.0725
0.4684	-0.3607	7.9160
0.5677	1.5499	8.1726
0.7573	1.4273	9.1531
1.4518	-0.7155	9.3882
1.2772	0.7842	9.4612
0.5300	1.7910	8.3587
1.4722	0.6120	9.7136
1.0409	0.3685	8.9252
1.0295	1.1623	9.0071
0.5779	1.6379	8.0883
1.3083	0.2160	10.5242
0.7202	0.5402	10.3184
0.8357	0.8124	9.9242
0.0185	0.6706	8.1882
0.6820	-0.6897	9.1651
0.5551	1.6319	6.9762
1.1874	1.4602	7.6546
1.6576	-0.1244	9.7824
1.0684	1.1330	10.1916
0.9571	1.2819	9.8279
1.6349	-0.4493	10.5116
-0.0724	1.1773	9.6873
0.5856	1.2359	10.2640
0.9900	-0.5462	9.7322
1.0469	0.3482	10.2813
0.6712	2.5382	7.8843
1.0863	1.1791	8.3766
1.2598	-0.8387	9.3643
1.8341	1.1067	9.2889
0.3290	1.6768	9.1986
1.7282	0.2602	10.0067
1.3071	0.0586	9.1633
0.8578	0.4373	8.4065
0.9751	2.0638	8.1350
1.6187	-0.9679	8.9001
1.4142	-0.6772	8.9383
1.6313	3.2674	8.8097
1.0582	0.2399	9.5300
1.2490	-0.7513	10.3393
1.0965	2.6046	9.5587
1.3627	0.5378	10.1413
1.0702	0.1753	9.2470
0.9314	1.2879	9.2889
0.5910	0.1854	8.2115
0.8859	-0.6413	9.9792
0.1358	1.6140	9.5677
0.8554	-0.2949	9.6735
0.9422	0.2949	9.4486
-0.0670	1.1240	8.9964
1.1408	1.3364	8.9587
2.3354	-0.4528	11.5507
0.6748	-0.6461	9.6789
0.5444	1.0971	8.2420
1.6385	1.4997	8.3760
0.4935	-1.7450	9.1423
1.5691	1.6355	9.9690
0.7460	2.2929	8.4053
1.2921	-1.5948	10.2221
1.4076	0.6006	10.7694
-0.7896	1.5990	9.4971
1.3501	0.0335	7.4775
1.3777	1.2126	8.1182
-0.3332	-0.3338	8.3216
1.5475	0.6808	9.3738
1.1037	-0.4875	8.3916
-0.3517	1.1402	9.5072
2.3378	1.3220	9.8638
1.6295	0.6012	9.7609
1.0265	0.8363	8.6410
0.9751	2.3330	8.9641
1.6163	0.5545	9.4211
0.8764	1.2784	10.9597
0.5438	0.9332	8.3629
0.8165	-0.1836	10.4721
1.2060	-0.1352	9.7585
0.5061	1.3280	6.5138
1.1826	1.8664	7.2640
0.7866	0.8088	8.4813
0.2883	1.3214	7.6797
0.7035	2.6088	9.7292
1.4441	-0.3344	9.3338
0.5468	1.0002	9.9762
0.5521	0.8159	9.8937
1.8437	0.3170	9.6269
0.7848	0.0993	10.6031
0.6981	0.9242	10.1186
0.4169	-0.8818	10.2305
1.7743	-1.5667	9.9954
0.5593	3.0353	8.9294
1.2293	1.6845	8.9671
1.9950	0.1149	8.8672
1.5900	2.4018	9.7136
0.6592	1.9059	9.3194
1.3298	0.9200	10.1760
1.2072	-0.5832	9.6376
0.2381	0.2931	9.9266
0.4540	1.1880	10.5451
1.1713	-1.3717	11.0781
0.3254	0.2548	9.4271
0.9966	1.5475	9.7908
0.2315	-0.3218	9.2416
1.0217	-0.2704	10.0444
1.2652	1.8718	8.8725
1.3974	-0.0311	9.1794
2.0124	1.4536	8.8893
0.6814	1.4261	9.1657
0.7986	0.1190	9.6687
0.8435	1.2538	10.7377
0.5743	0.5222	9.7028
0.4247	-0.6825	11.3180
0.6305	-0.4193	9.8476
-0.1507	2.2211	7.8269
1.1378	0.8985	8.2426
0.9087	-0.4475	9.4444
0.7878	2.0500	6.9726
1.2054	2.6937	8.2624
1.1533	0.4439	9.6269
0.9715	-0.0467	8.8498
0.2973	2.5477	8.5986
1.0845	-1.2024	10.6229
1.4482	-1.3812	10.8376
0.7107	1.8604	10.0731
1.5099	0.9200	10.4578
0.5563	-1.3872	9.7238
0.5809	2.2660	9.8410
1.3304	1.2323	9.2303
0.1149	-0.5755	9.9254
1.4997	2.3061	10.4883
0.7101	1.6552	9.5288
1.9011	0.3129	9.7429
1.2676	1.2927	10.5439
-0.2363	1.1743	8.7475
1.0750	0.5563	10.6522
1.1480	-0.3141	9.5419
-0.2728	0.7854	8.7553
0.9410	1.4764	9.6083
0.7932	-1.5063	9.2267
0.4313	1.2748	9.2709
1.1025	2.1344	8.5124
0.9751	-0.7178	9.3714
0.6012	-0.1723	8.7278
1.1761	2.3049	9.3062
1.4901	0.6867	9.2578
1.3944	0.2728	11.2283
0.4313	1.9968	10.4123
1.6217	-0.2728	9.2811
1.0451	-0.0790	9.8769
0.2895	1.0319	9.8626
0.3799	-0.0024	9.5485
0.6987	-0.8680	9.3936
0.0909	1.4680	9.5168
0.6173	1.5643	7.7108
0.5994	-1.4847	10.4111
1.3561	-0.0132	8.7104
1.3824	3.0466	7.8556
2.6189	-0.4989	8.7810
1.6229	-0.2124	10.8436
0.5378	1.6199	8.5974
1.2066	0.6550	6.9164
1.7952	-0.1585	8.4263
0.3075	0.9685	8.3916
-0.1567	1.4273	8.8378
0.9721	-0.3141	9.3469
-0.4869	0.8195	7.9968
1.2975	0.3093	8.9168
0.3727	-0.2542	10.0301
0.3284	0.5509	8.8073
1.5350	2.9408	8.6141
2.4694	-0.7101	10.1982
0.5145	-0.3769	9.4791
0.9404	2.4867	9.6436
2.4341	0.6431	8.3706
0.9021	0.1962	9.5222
0.6981	0.9876	9.8949
1.0481	0.1567	8.7828
1.2682	-0.4510	10.1910
0.9368	0.4187	10.1437
1.3783	1.2419	7.5613
-0.4893	-0.4301	10.2412
1.2155	0.2548	9.0969
1.2802	2.3755	8.5369
0.2812	0.2088	9.2943
1.2455	0.9523	8.6907
1.2813	3.1806	7.9154
1.5338	0.5324	8.0034
1.9430	1.1749	10.2975
-0.8560	2.4825	9.1106
1.3914	-0.0580	9.8685
1.6528	0.6150	9.8117
-0.3900	1.5715	8.8384
0.7448	0.0622	8.2355
1.3137	-0.3129	9.1836
-0.3529	1.7497	7.3274
0.8865	-1.0080	8.1607
0.6586	0.1501	9.3762
0.7178	1.2694	7.9908
0.9733	1.8807	5.8779
1.9639	1.0546	7.1605
0.4738	1.3507	8.8037
0.3870	1.3232	9.4767
2.0267	0.6592	9.5036
0.8010	1.1031	10.1503
-0.1472	0.8865	9.8141
1.2000	-0.5491	10.5260
0.4289	-1.7803	9.8237
0.1579	1.5828	9.2793
1.0163	1.2748	9.2195
0.6568	-0.4259	9.3074
1.0241	1.1258	9.2805
1.8484	2.0788	9.2721
1.0235	0.3105	8.4544
0.8829	0.0353	8.5848
0.6700	1.3513	9.1160
0.7065	-0.2261	9.9278
0.4911	0.3194	9.5306
0.8877	0.6090	8.9844
0.8088	0.2387	9.4701
0.7633	1.0349	10.5044
0.7155	1.1934	10.0199
0.7741	0.2387	10.6749
0.7143	-0.0688	9.6526
0.6825	2.1320	9.1017
0.8530	2.2696	8.8402
0.4989	-1.1856	9.6933
0.8171	1.6116	8.8510
0.4941	2.0225	8.1810
-0.4744	-0.6843	10.3495
1.0151	-0.7262	9.8793
0.3601	0.8411	8.8008
1.0696	-0.7795	9.4396
1.7300	1.2215	9.7663
0.4235	1.7396	8.4717
1.7103	-0.0879	9.6400
1.5733	1.7659	10.3543
0.9141	1.4877	9.6065
1.9729	-0.0951	9.8171
2.6189	1.0128	10.7359
-0.1501	1.7133	8.9019
0.3464	0.5946	8.8085
2.8056	0.1376	10.6510
-0.8967	0.4415	9.6586
-0.1974	-0.0048	8.1595
1.9884	0.5815	9.7860
0.2459	0.4152	9.3164
0.0718	0.2483	8.6907
1.0726	0.7238	9.8889
1.4967	1.0157	9.4564
0.9260	1.2754	8.3461
1.1874	1.3059	9.6514
1.0457	0.8297	9.5449
0.8608	2.0339	8.8307
1.5661	-0.0317	8.9557
0.1741	0.7495	7.4775
0.2524	0.9811	6.2369
0.8381	0.3715	8.5663
1.1779	-0.7759	9.3086
-0.1675	1.5123	8.9138
1.1378	0.5210	9.7627
2.1571	0.6843	10.9136
0.5749	1.6241	8.7541
2.4245	1.2694	9.0478
2.0135	1.4991	10.3962
0.4463	1.7491	10.3094
2.6530	0.2955	9.5509
1.3681	1.3603	10.2855
-0.4403	-0.0191	9.5706
0.6861	0.3212	10.6061
1.4859	-0.0598	10.3082
-0.6108	0.8710	8.4969
0.9045	-0.2243	8.4664
1.0576	1.5733	8.7691
0.5330	1.1091	7.6714
1.3095	1.4118	7.7306
0.8267	0.7196	9.1489
0.4415	0.9781	8.9689
1.0977	1.5691	7.7922
0.7908	-0.3224	9.1375
-0.5503	0.6933	8.7583
1.4985	0.9194	6.6927
0.6084	-0.8417	9.2847
0.6281	0.1178	7.9980
0.3302	0.8638	7.7485
0.8578	-0.2100	9.0418
0.9452	-0.0167	7.4488
0.5372	1.6391	7.6803
1.3047	0.3057	8.3509
1.7025	1.1551	8.9509
1.0816	1.1569	9.9990
1.3495	0.1442	9.6999
1.2825	1.0630	8.8929
0.1268	0.4116	9.8057
1.8048	-0.3984	10.2418
1.3926	1.0283	9.5964
-0.5976	1.0361	8.7003
1.7976	-0.4122	11.0913
1.6606	0.5988	9.1734
0.2895	0.1083	8.4508
1.7444	0.7071	9.3517
1.5248	0.5491	9.3571
0.4020	0.8847	8.6727
1.5194	1.1216	9.3068
0.9015	0.9236	8.6775
0.1149	0.3733	7.6211
1.0409	0.2806	8.6692
0.2734	0.3350	9.8279
-0.3242	1.0319	7.7910
0.5641	0.0156	9.5593
0.1801	-0.8070	9.1609
0.1322	1.3896	7.6205
0.8542	2.2881	7.3818
1.1880	-0.1747	8.1804
0.0347	1.1892	9.0233
0.9852	1.6463	8.2289
1.4040	0.6688	7.6049
0.8997	0.7083	8.0907
0.6778	0.0251	9.9308
0.6431	0.3248	8.6859
0.2040	1.7139	8.7714
0.4558	-0.2883	9.6047
1.0175	0.6646	10.0097
0.2189	1.7426	9.1441
0.5288	1.4530	9.2027
2.5256	-0.8488	10.5128
0.2674	1.8179	10.6378
0.2423	0.3505	8.5017
2.6476	-0.0203	9.5611
0.8148	0.7525	10.0432
1.1121	0.4092	9.5940
0.3494	0.7436	8.9060
0.4487	0.5587	9.9960
0.9697	0.3505	8.4484
0.3069	1.4381	8.4251
-0.4277	-0.0837	8.4777
0.6054	0.8734	8.7924
2.1757	1.2161	9.6676
0.7304	0.8907	8.8283
0.3888	1.4979	8.1027
1.6235	1.0570	9.3003
0.6652	0.6132	9.9242
0.7484	0.5073	9.6095
0.8154	1.0774	8.7954
0.8506	0.2883	10.0905
0.1866	-0.3787	10.8628
0.4678	0.5581	9.0149
1.4225	1.1115	9.4354
1.7348	-0.0544	9.7196
0.7232	1.0768	10.0713
1.4321	1.4201	8.5639
1.3609	0.0873	11.2893
1.2138	0.1657	9.2811
0.0317	0.8686	9.0203
0.5318	-0.7095	9.2488
0.6179	1.7144	7.0265
0.6126	0.9434	9.4893
-0.3392	-0.8943	9.8512
0.6652	1.8102	8.0739
1.2024	1.8413	7.6139
0.1161	-1.5374	8.8749
0.8267	1.8807	9.0981
1.3824	3.0036	7.4817
0.8339	-1.0253	9.7543
0.9410	0.0915	9.9972
1.1659	2.0817	7.9531
0.8094	1.0391	9.6095
1.0851	0.3021	9.4319
1.4189	1.7635	9.0729
0.6790	0.6114	9.1340
1.2269	1.2784	10.0941
0.2405	0.6772	10.1503
0.9631	-0.3003	10.4482
1.4889	1.1025	10.1180
0.4014	0.8285	8.6225
1.6175	0.0389	9.4349
1.3830	2.3569	10.1060
-0.0227	0.9691	8.8432
0.9428	0.4175	9.6394
1.9328	0.4211	9.5778
-0.3111	1.6726	8.5956
1.4572	-0.2165	9.4079
1.5673	0.1968	9.5449
0.7705	0.4433	9.7836
0.9517	0.2506	9.7549
0.8770	1.0146	10.2771
0.6293	-0.0927	9.5844
1.0295	0.6365	9.6622
0.1322	0.4163	9.9631
1.4853	0.4594	9.2829
1.4901	1.3304	8.4861
1.0433	0.2201	10.6372
0.3990	0.0078	9.5700
0.7358	1.7491	8.9838
1.4937	-1.3292	9.4061
0.2046	0.9200	9.7782
0.4905	1.5386	8.6111
0.3105	0.0257	9.3517
0.5061	0.1107	9.0053
0.6407	1.7677	8.0596
0.8195	0.9057	8.1858
0.6682	1.5374	9.3146
1.4788	0.3182	9.8991
0.2327	1.7886	9.0245
0.6820	0.4798	10.1198
1.2724	0.0718	8.9371
0.7860	1.0319	9.4540
0.1155	0.3625	9.7968
1.3507	0.4600	9.2380
0.6742	0.9416	8.9318
0.8279	0.1382	10.2239
0.0209	0.4780	9.6735
1.3669	0.5402	8.9359
1.3089	1.7503	9.0640
1.3759	1.0696	10.5684
1.8796	1.3639	9.5994
2.6141	0.5737	10.9004
0.7286	0.8369	9.8703
1.7174	0.2931	9.6412
1.1474	1.1366	10.0079
0.1513	0.3852	9.4426
0.9541	-0.2698	9.9924
0.5450	1.4441	9.0113
-0.1394	0.3751	10.5194
1.9639	0.0616	10.0372
1.3107	1.9220	8.0506
-0.5653	0.7071	8.8259
2.5304	0.0688	9.6203
1.0857	0.8070	9.8410
0.5426	1.2634	8.0542
2.1386	0.8064	8.1583
1.8652	1.2287	9.4911
-0.2692	-0.2160	8.3970
2.1589	0.0395	9.0903
0.9661	1.1635	8.9940
-0.9739	0.3266	8.0291
1.2861	0.0766	7.9591
0.8985	2.0405	8.5740
0.0987	1.1306	8.5034
1.0056	-0.6802	9.2422
1.2431	0.9374	8.9742
-0.0473	1.8867	6.7088
1.5727	-0.1830	9.1046
1.6911	-0.0096	10.0115
0.8261	1.5470	9.4008
1.0690	1.5745	8.7906
2.1733	0.6945	10.4949
0.0341	-0.4445	10.3830
-0.2297	0.2818	9.9708
1.1593	1.0205	8.9180
-0.3649	-0.3805	9.6299
0.6245	0.3505	10.2323
0.6371	1.3980	9.2937
0.4247	-0.6347	8.8797
1.8706	0.1549	9.4145
1.3878	0.0365	10.1688
1.0427	0.4211	9.6735
1.6660	1.3274	9.8207
1.1940	0.7340	9.0508
0.9374	1.0475	8.7613
0.6987	0.3242	8.0925
0.4851	0.3787	9.3290
0.8776	1.4596	8.9048
1.8957	-0.4995	10.3148
0.6987	0.2542	9.1585
0.9571	0.6520	10.4805
2.0261	-0.1663	10.3555
0.8758	0.6221	10.6821
-0.1226	0.3326	9.1423
1.4943	0.6269	9.3858
0.3631	0.8776	8.7463
0.5103	-0.1352	8.9898
0.8806	0.9236	9.5042
0.3823	0.2937	8.9204
0.2740	0.2931	9.0263
2.2666	1.7001	9.4366
-0.3176	-0.3153	9.6239
0.5491	0.5856	8.4394
2.1314	1.7037	9.2321
1.5553	-0.4439	8.9025
0.7813	1.3328	9.3673
1.0379	0.3374	8.6584
0.8082	-0.9099	9.5730
0.1376	1.7545	7.2353
0.7029	0.2698	9.1818
0.4702	-0.9972	8.9904
0.5832	1.1234	8.4454
1.9495	1.1820	8.9593
1.5218	-0.1974	10.3100
0.2303	0.7573	9.1872
1.7438	1.4506	9.3397
0.9906	1.2987	9.6323
1.1814	1.7342	9.6658
1.0863	0.2429	10.0965
1.0642	0.8662	9.9816
0.5294	1.4207	8.3312
1.1366	0.8770	8.3461
0.5246	-0.9182	9.9296
0.9158	-0.1675	8.7032
0.6646	1.6588	8.4251
0.8237	0.5605	9.9553
1.0857	0.0718	9.2345
0.6993	2.3725	10.1868
0.4666	0.8500	9.5192
1.4494	1.2245	9.0735
0.8871	1.2359	9.6963
0.8770	0.1322	10.3459
0.6437	0.7980	10.0713
1.4883	0.2094	9.9607
0.3278	-0.8159	10.0342
-0.0467	1.5260	9.2351
1.4722	-0.0981	8.8654
0.8991	1.5446	8.4921
0.8722	1.3400	9.1381
1.7922	0.4786	9.1172
0.6939	2.0710	9.5353
0.3643	0.3547	8.9348
1.0313	-0.6796	10.8729
0.5288	0.5563	9.6927
0.4319	-0.3763	8.9126
1.8173	-0.9063	10.1569
0.9930	-0.1011	10.1419
0.1687	1.2514	8.3862
1.4955	1.1880	8.7499
1.3202	1.4686	8.7409
0.6431	1.0235	9.6813
1.3190	0.7711	10.1497
2.6542	1.7988	10.3022
0.5444	0.0670	9.2865
1.6863	-0.5228	9.9804
1.0116	1.1139	9.8847
-0.1980	0.6610	9.5300
0.4851	-0.3093	9.5007
1.1300	1.4764	10.7527
0.0736	0.1208	8.7308
1.2269	0.8859	9.1980
2.0710	2.3450	9.3858
0.6831	-0.2632	10.2711
1.5978	1.0116	9.3206
1.9848	2.0734	10.8526
1.3286	-0.3541	9.6137
2.2151	0.8560	9.3421
0.6473	0.6347	9.2584
0.5103	0.4409	8.5262
0.8806	0.5683	9.0717
0.0179	0.9541	8.3892
0.0568	-0.4702	9.5282
0.9248	0.5761	9.3864
0.9840	0.4744	8.7960
0.6203	0.6861	9.3320
1.4913	1.6247	7.6797
2.2935	2.0100	8.9712
0.5497	0.6808	9.7028
1.9597	1.2389	7.9166
1.5326	1.1982	9.4576
0.8417	0.1310	9.3667
0.7507	0.3464	9.8488
0.1609	0.9727	9.3846
1.2401	1.1480	9.1704
0.3960	-0.1771	9.3439
0.4259	0.5533	10.4775
1.9543	1.0020	8.2582
0.8812	1.9489	8.8319
0.1298	0.3117	9.7567
1.7826	1.1390	9.2901
0.7029	1.5105	8.8109
0.0514	1.1683	10.0666
2.6536	-0.1657	10.2430
0.7920	-0.1334	10.9704
-0.5121	0.9099	9.3218
1.3962	1.0576	9.4516
0.7938	-1.3765	7.9693
-0.0036	0.1944	9.1399
0.6191	0.3948	8.5782
0.9757	-0.3631	7.9124
1.3549	0.7884	7.8741
1.1067	0.6921	8.3180
1.3561	0.7657	7.9633
0.8638	0.5976	7.9136
1.2897	1.0588	9.8518
0.6120	0.7902	8.9144
0.2812	0.2004	9.2733
1.4907	0.4493	7.4596
0.0903	1.4249	7.3579
0.4905	-0.0120	8.7457
1.5176	0.4528	9.0699
0.5707	1.0540	9.5234
-0.0975	0.4074	9.4307
2.0566	0.0855	9.1591
0.7238	1.6827	9.8823
-0.0359	0.3667	9.0903
2.2235	0.4857	9.6131
1.0684	1.5673	8.5687
0.3027	0.9164	9.6101
1.5230	-0.3960	10.0522
0.9517	0.5713	9.5820
0.4744	-0.0150	9.1316
1.2365	-0.0861	9.1142
1.5350	0.9505	8.6333
0.9158	1.0187	7.8538
0.4080	1.0032	7.3035
0.9834	1.8305	6.8392
0.4367	-0.0455	7.5565
0.3733	0.3170	7.4285
-0.6694	1.6995	7.0600
1.5069	0.0096	8.7924
0.9523	-0.2477	8.9850
-0.3153	1.2819	8.9491
0.9392	0.9876	8.1044
1.4417	-0.0736	9.3918
0.0855	0.8465	8.9982
1.0044	1.2634	8.4382
0.9559	1.0481	9.6562
0.8189	0.6718	10.4715
1.4357	0.7950	10.3465
0.9583	0.4977	9.0610
1.0786	0.1525	10.1904
1.1426	0.1627	9.3427
0.0000	0.7603	9.5808
0.9834	0.3894	9.4923
0.5826	1.0786	10.6767
-0.0132	-0.3727	8.2809
0.6891	0.0036	9.1028
1.9693	0.3661	8.2253
2.1954	1.7898	9.3134
1.1198	1.2993	8.8809
2.3994	1.2993	9.5922
1.6175	1.9131	9.0394
0.1400	0.6658	9.2177
1.5368	0.3063	8.8600
1.1186	1.7970	8.8049
0.0371	-0.0538	9.1471
0.4295	0.8076	8.5363
0.2877	0.9021	8.1834
0.7065	0.5521	8.5082
1.1515	0.8423	9.1058
0.3948	1.6044	11.2354
1.7342	1.0157	9.8051
1.8544	1.4955	9.2614
0.0114	1.4303	8.6596
0.9529	0.8722	7.7126
1.2066	0.3799	8.2211
0.8088	1.1007	6.9780
0.6006	1.4453	7.1485
0.8435	-0.1155	8.6739
1.4602	0.2082	9.2943
0.9553	1.1503	8.9228
-0.1035	1.1803	9.6149
1.2305	0.4528	8.8719
1.4177	-0.8728	10.3274
1.4106	1.1563	9.3978
0.4845	2.0554	9.5168
1.9645	-0.8321	10.0133
0.9817	1.5649	9.5575
-0.4935	1.1097	9.0239
0.6508	0.3601	9.0460
1.4034	1.5458	8.9772
0.4217	-0.1220	10.2963
0.8782	0.6640	9.6263
1.4847	2.5400	9.2333
1.8802	0.2417	9.5048
1.4411	0.1974	9.5282
0.0323	1.4411	9.4109
1.1162	-0.0999	9.3661
0.8255	0.2824	10.0516
-0.6598	0.7711	8.5142
1.1210	-0.3488	9.0311
0.7430	0.7089	8.9449
0.7406	0.7980	9.2757
1.9322	-0.1101	10.4087
1.1545	1.9352	10.0737
0.5755	0.1220	10.4309
1.8568	0.6550	10.7682
0.7836	1.5344	9.1537
0.6808	0.4534	8.4711
1.0780	0.5360	8.8606
0.7489	1.1743	9.0035
0.7549	-0.3990	8.7385
0.5910	0.3565	9.7573
0.0371	1.3681	9.5282
0.6275	0.6275	9.2171
1.2054	0.2411	8.9126
0.7926	1.0116	9.3595
1.8760	-0.1717	10.2921
0.9984	1.3932	10.1443
1.0481	0.7382	8.9880
1.9394	0.4899	9.9942
0.8758	1.2371	9.6227
0.1531	0.9152	10.0875
2.0100	0.0275	9.4839
0.2877	1.2353	9.6460
0.5348	0.6945	8.9736
0.8578	0.7627	10.3615
0.2052	1.0564	8.6901
1.1773	-0.0796	9.7842
0.9960	1.2126	9.5688
-0.2530	0.6018	11.0063
1.9543	-0.9930	10.1228
1.1970	1.6881	10.0582
0.6287	0.1484	8.4628
2.6010	-0.1035	9.8374
0.8524	0.1358	10.4398
1.1551	0.8004	8.8905
1.5667	1.3256	8.7403
-0.4247	1.8096	8.6817
0.8423	1.0235	8.4024
0.9781	1.0325	9.3679
-0.8758	0.4642	8.4598
2.7499	0.0927	8.6817
1.2688	0.6066	10.3633
0.4768	-0.0646	9.2075
1.6301	0.7214	8.7828
0.5031	1.5810	8.4299
1.2120	0.2578	8.7876
0.8488	0.0502	9.9086
-0.0443	0.1890	10.2370
1.2526	0.9212	8.8737
1.6415	-0.8046	10.3471
0.5605	0.4696	10.1306
0.9410	0.7741	9.1669
0.7113	0.9476	8.3952
0.9135	1.4722	8.5669
1.8341	0.0347	8.6177
0.7041	1.8586	9.2578
0.7830	1.1294	9.2751
1.7473	-0.1813	10.3728
0.4672	-0.2800	9.6945
0.9470	1.3166	7.9591
1.3603	0.0820	8.6261
-0.1956	1.3489	9.2255
0.8632	-0.3817	9.0879
1.0756	0.8985	10.1970
0.6173	1.2712	9.3015
1.6427	0.1484	9.8691
0.4038	0.9147	9.5694
1.0875	0.6957	9.4911
1.6014	0.4618	9.1357
0.1962	1.3968	10.1252
1.2108	0.6221	8.9156
1.6570	0.2859	10.3375
0.2871	0.6574	9.5844
0.6849	0.7190	8.7882
0.4038	0.5761	9.1579
0.5832	0.5575	9.6544
2.0273	-0.6473	10.2825
-0.1938	1.3160	10.7509
1.2700	0.9410	9.1280
1.3005	0.8997	9.5563
0.4510	0.8441	8.8277
1.3208	1.0235	9.1938
0.5438	1.2365	9.4067
0.7771	0.9733	8.5441
1.7731	0.1950	9.7698
0.9176	0.8201	10.1814
0.1639	1.5667	9.3756
1.1109	0.7041	9.1830
0.8261	0.8309	9.0795
1.7647	0.6885	8.9641
0.6281	0.0778	9.9726
0.9350	0.5575	9.2488
1.1300	-0.1208	9.3858
0.8028	-0.0909	9.4773
-0.0299	1.2078	8.7248
1.3232	-0.1358	9.8207
1.2359	0.0485	9.3499
0.8207	1.4548	8.9467
1.7013	0.0694	9.6508
0.4881	1.9675	9.6490
0.7986	0.2142	9.3673
1.7091	0.1801	9.7202
-0.1358	2.0698	8.2420
1.3394	-0.0437	9.9786
1.4082	1.3998	9.4510
0.4349	0.9805	10.0067
1.8108	-0.3631	9.4456
0.9314	1.7252	9.9619
0.3918	0.1956	9.2626
1.3406	-0.1932	9.6167
-0.3505	1.3232	9.1878
0.7968	-0.2471	9.1998
1.9627	-0.0467	9.2362
-0.4732	0.4690	9.3038
1.6911	-0.5982	8.2588
0.5803	2.4425	8.7320
0.2572	0.9607	9.3152
1.2024	-0.1675	9.6969
0.2261	1.2945	9.6179
0.4331	0.9212	8.9904
2.2104	0.0508	9.6185
-0.6150	1.2036	9.4360
1.6708	-0.4092	9.1615
1.0056	2.0016	9.0843
0.2973	0.5079	9.7758
2.0907	0.1268	10.0588
0.8608	1.3633	9.9816
0.8979	0.3153	9.4115
1.5769	1.1797	8.9982
0.0215	1.2682	9.4737
1.9615	-0.3033	9.8817
0.3458	1.5320	10.4183
-0.2303	0.1310	9.8536
1.6648	0.1884	10.1198
0.4481	0.6634	9.1477
0.7041	0.7250	9.5300
1.2754	0.5922	8.9132
-0.5390	2.1039	8.9419
1.8389	-0.4983	9.4564
1.1958	1.2275	10.9734
0.7107	0.3374	10.3082
0.9374	0.6592	9.7046
0.4247	1.2383	8.4933
1.6845	0.8488	8.6721
1.4925	-0.0251	9.6735
0.2943	1.0636	8.6028
2.2911	0.5527	8.9796
1.8275	0.8632	9.2578
0.5850	0.9182	9.9816
1.6235	0.4810	9.8249
0.5946	1.7880	9.2123
0.7711	0.1430	8.8564
1.2215	-0.1262	9.9936
-0.1196	1.1898	8.9168
1.4949	0.1525	9.7256
1.0821	0.8369	9.3984
0.5892	0.3805	10.3112
1.6827	0.0239	9.8823
0.5629	1.5218	9.5078
0.4833	0.6054	8.8684
1.8604	-0.2345	9.8386
0.2189	1.2347	9.1704
0.5605	0.1178	9.2189
1.4453	1.6953	9.1441
0.8381	0.5324	9.3326
1.6134	-0.7262	10.0115
0.4122	1.8287	9.4899
0.5157	1.3735	8.9431
1.9077	-0.0975	8.6189
-0.0927	1.1450	9.5383
1.8496	0.3679	10.5284
1.1007	1.8760	9.8757
0.3206	0.1944	9.5665
1.9519	-0.0939	9.8015
0.4445	1.5523	9.1848
-0.1789	0.8907	9.5306
1.5416	-0.4780	9.8566
-0.1035	0.8339	9.7381
1.0510	-0.0598	9.3056
0.6365	2.1320	9.4689
-0.0574	0.4080	9.9284
1.7162	-0.2746	9.8907
0.2937	1.3848	9.0717
0.3553	0.7669	8.8133
2.2253	0.2201	9.8560
0.0251	0.6927	10.2951
1.7988	-0.6867	9.5982
0.5743	2.8815	8.9132
0.4074	0.4839	9.1471
1.3896	-0.1340	9.6293
0.6227	0.7214	9.3924
0.2058	0.8530	7.9968
2.0853	1.1988	9.0682
-0.4654	0.6263	10.4057
1.6451	-0.9326	9.9176
0.5832	2.0913	8.6165
0.1478	1.0887	8.9904
2.3545	-0.4343	9.7369
0.4786	0.6694	10.1503
0.5874	0.7555	9.3888
0.9188	1.9376	8.9671
-1.0307	0.8829	10.7270
1.8897	-0.6455	9.4259
0.5252	1.4674	9.6723
0.8207	0.4558	8.3671
1.9549	0.5109	10.2436
0.7615	0.2165	9.5204
1.7820	0.6036	10.4506
1.5368	2.1900	8.5830
-0.6257	0.4140	9.7280
2.0997	0.0981	9.3344
0.4869	1.5541	9.9607
0.4463	1.0690	8.9635
1.2658	0.7627	9.3344
0.1962	0.7705	9.4384
2.3300	-0.0610	8.9162
1.1928	1.5846	9.2362
-0.1615	0.5880	9.0018
1.0582	0.4923	9.8542
0.0754	1.2855	9.3050
0.9517	0.5898	10.3603
1.1755	0.6203	10.3363
-0.2919	0.0981	10.9052
1.6026	-0.5258	9.3930
0.4702	1.1067	8.5244
0.7854	1.5685	8.7702
1.2347	0.2267	9.9864
1.0660	1.0193	9.8404
2.5926	0.6479	9.4008
1.9974	0.7860	8.5088
-0.3141	0.7609	9.2656
1.8215	0.4971	9.0364
0.2764	1.8544	7.8568
0.6209	0.5563	8.5423
1.3202	0.5043	10.1485
-0.3876	0.5366	9.8488
1.7808	0.0377	9.3415
0.5180	1.6193	9.5569
0.5486	1.4471	8.2217
0.9673	-0.2829	9.6346
0.6909	0.7567	9.3044
1.8592	-0.0018	9.7316
1.6265	0.6849	10.0217
0.1992	0.7184	10.1940
1.2431	0.1693	9.9182
0.7298	0.9619	9.5647
0.9715	0.8154	9.6137
1.7611	-0.0664	9.0753
-0.0317	1.3017	10.0797
1.4889	0.1579	9.8967
1.1641	1.5236	9.6287
0.4493	0.9482	9.6580
1.6050	-0.2237	9.5706
0.7944	1.1234	10.2825
1.4142	0.4193	9.2524
1.1414	1.0277	9.0119
-0.0239	0.4463	9.5449
1.1318	0.0778	10.3645
0.6831	0.8363	9.3218
1.1779	0.4397	10.0959
1.9621	-0.4672	10.3034
0.1531	1.4596	10.1018
1.8383	0.0084	9.8644
0.5509	1.6463	9.2913
0.4959	1.2353	9.1561
1.4752	-0.3135	9.3170
0.0449	1.0648	9.6795
1.1515	0.2686	8.6919
0.9870	1.4811	7.6379
0.4457	0.7089	9.5013
1.0379	-0.6173	10.1192
-0.3314	0.7304	9.0466
1.1444	-0.1490	9.1441
0.6664	1.2945	9.1244
0.0700	0.3583	9.7920
1.2676	0.3374	10.5744
0.5563	0.6664	9.0604
1.6702	0.7501	8.9982
1.3340	1.2006	9.3631
1.1791	1.0199	9.5688
1.2281	0.2082	10.1647
1.0211	1.1396	8.9515
1.4171	0.6879	9.3690
1.0546	0.5539	9.7405
0.5432	0.2357	9.9768
1.8024	-0.0778	10.1371
0.8704	1.5517	9.1052
1.0540	0.8506	9.4546
1.3059	0.1268	10.1042
0.0203	0.1316	9.9009
1.2927	0.1956	9.8961
0.1519	0.9757	10.0109
0.5976	0.4451	9.6035
1.0570	0.2925	10.1814
0.3685	0.7878	9.9678
0.6323	1.4112	9.1429
0.7615	0.7819	10.1114
0.8764	0.9739	9.8404
1.4171	0.4379	10.4769
0.5378	1.1581	8.8701
1.9071	0.7460	9.0484
1.4692	0.8853	9.8279
1.5954	1.0379	8.9264
1.3316	0.5402	9.9511
0.6191	0.9996	9.4181
1.7180	-0.4810	9.8895
0.3565	-0.0951	10.2364
0.1214	0.4798	8.7942
0.7789	0.8165	9.2177
-0.2782	0.9888	9.2602
1.7569	-0.1304	10.8400
0.5982	0.5049	10.1814
0.3870	0.9141	9.1609
0.5336	1.7156	9.3768
0.0449	0.8112	9.8159
1.4829	0.4498	10.1563
1.3358	0.4989	10.2927
1.1767	0.8524	9.4576
1.2311	0.5821	9.2763
1.0116	0.6993	9.7106
1.4925	0.6586	8.4376
1.2861	0.7214	9.2362
0.7382	0.7603	9.4456
1.7103	-0.2171	10.2951
1.0181	0.5007	9.4510
1.4165	1.6271	8.7792
1.3860	2.0734	9.0843
0.0586	1.2120	8.4089
1.8305	-0.2554	10.0121
0.3799	0.6508	10.3633
0.9254	0.8249	9.2674
1.2377	1.4231	8.3306
-0.4331	0.1621	8.9060
1.8987	-0.1872	8.5914
-0.0347	1.4417	9.4815
1.2939	0.4510	8.6835
0.9470	1.1539	9.6203
0.5982	0.1657	9.3302
2.1003	0.7454	8.4107
0.2931	1.1485	8.7278
1.3089	0.2907	7.3645
1.8670	0.2752	10.0199
0.3763	-0.3882	9.1310
1.5565	0.8967	9.0490
0.4128	2.3569	8.0225
0.6413	0.9003	7.7940
1.7085	0.3828	8.8510
0.5324	0.5874	10.3842
1.5123	1.1701	9.2285
1.8831	2.2409	6.7166
0.6191	0.5551	8.6668
1.4351	0.0377	8.3300
0.2614	1.1635	9.7351
1.7593	1.0122	8.1254
1.0277	1.1342	8.8767
0.0808	-0.2979	9.8464
2.0548	-0.3858	9.3038
-0.2195	1.0845	10.0313
1.5565	0.4947	8.4705
1.5242	0.9787	9.9236
-0.0359	-0.3188	9.3098
2.0321	0.8710	8.5992
0.2459	2.4933	8.5962
0.9069	0.6700	8.1637
1.8748	0.4181	10.4715
0.0802	0.1513	10.4039
1.8149	0.8680	8.6889
0.5797	2.2331	7.6953
0.5821	0.5521	9.0592
1.9878	-0.2136	10.0013
-0.2686	0.3254	10.9662
2.1607	0.0054	9.4420
0.1633	1.8461	8.8211
0.8829	-0.0706	9.8099
1.9944	0.0915	9.9661
-0.2124	1.4578	10.6157
2.2935	0.8357	9.2518
0.1980	1.8323	9.5222
0.5474	-0.4355	10.4853
1.7731	0.5366	9.5342
0.1663	1.6319	9.3015
1.8317	1.0002	8.4885
0.8650	1.5386	9.5820
0.4522	-0.4032	9.6406
1.2897	0.6736	10.0157
0.1741	1.8574	9.2799
1.2742	1.0995	9.0741
1.3382	1.2873	9.5485
0.4822	-0.0969	10.2394
1.5936	0.7735	9.3798
0.2901	1.5703	8.6775
1.1743	0.3176	9.4235
1.9687	1.2712	9.7806
-0.6820	0.4433	10.6384
1.6606	0.1250	9.2979
-0.0185	1.1127	8.8863
1.0463	0.3153	9.0035
1.9442	1.1737	8.4705
-0.8010	0.8088	9.9493
1.7210	0.3553	8.8606
0.0903	1.0002	9.6299
0.9374	0.1639	8.9910
2.0147	1.8556	8.7176
-1.1186	1.4518	10.0025
1.5769	-0.2853	8.9497
0.6108	0.2925	10.6061
0.1705	-0.1980	10.3471
1.7838	1.4931	9.1609
-0.4469	1.5135	8.7744
1.7330	-0.0215	8.7732
1.0648	0.9978	8.8474
0.2758	0.2471	10.1820
1.9597	0.4600	9.6245
-1.0086	0.8680	9.9308
1.9394	-0.5928	9.4564
0.6036	1.2999	8.9922
-0.5234	-0.4612	10.5164
1.9824	0.8710	9.6478
-0.5378	1.0816	10.0013
1.8227	-0.2088	9.6975
1.1737	1.8443	8.8091
-0.0162	0.8728	9.7842
2.2504	0.8004	9.4570
-0.4403	0.8865	10.4338
1.7204	-0.3870	9.5377
0.8620	1.5721	9.1513
-0.1771	0.1436	9.2075
1.9920	0.6987	9.3074
0.1825	1.0660	9.3978
1.7300	-0.2267	9.5270
1.2455	1.7737	9.3547
0.0700	0.7795	9.8895
1.5458	0.4391	9.8159
-0.2106	0.6311	9.8656
1.0433	-0.7382	10.5128
1.0522	1.2903	9.1621
-0.5300	0.8548	9.4049
1.5164	0.3404	10.2855
-0.2824	0.5910	10.0785
0.6072	-0.5228	10.1150
1.3585	1.4165	9.4103
-0.8058	0.8148	9.0981
2.2415	0.2106	9.0693
0.9003	1.6092	8.7696
1.3573	0.1723	9.4097
2.2062	1.4817	9.3499
0.1047	1.2365	9.8745
2.5316	0.2979	9.7884
0.3775	1.1133	9.2303
0.8441	0.0197	9.8039
1.5709	1.3633	8.9730
0.6933	0.5844	9.6376
1.4770	0.1561	10.1497
0.1328	0.4636	9.6622
0.7065	-0.2082	9.8596
0.7160	0.4845	9.1178
0.0682	0.9045	9.2632
0.8201	-0.4187	9.7585
0.4726	1.1252	9.6556
0.7406	0.6048	9.8709
1.3681	0.5713	9.5922
0.6634	2.0465	8.9025
1.3077	-0.2459	9.9978
1.2084	1.0768	9.5742
0.6287	0.6281	9.9750
2.1799	0.7484	8.9683
0.4331	1.7826	8.8654
1.5978	-0.2465	9.8356
1.1701	0.6467	9.7064
0.1029	0.5755	9.6903
1.3280	0.5569	9.5521
-0.2070	1.1264	9.1130
1.0816	-0.4397	9.8500
0.8339	0.5689	9.9098
-0.1795	0.8991	9.4636
1.0289	0.3709	9.7645
0.4457	0.5480	9.4678
1.2772	-0.0072	10.2143
0.9661	0.9164	9.1088
0.7896	1.6588	8.3395
1.7414	0.7035	9.4941
0.9505	0.7448	9.3900
1.9424	0.2716	10.2263
1.2861	0.9589	9.6544
0.7573	1.3579	8.1637
2.1176	0.3840	9.6747
0.9900	0.8273	9.6233
1.0845	0.2883	10.1198
0.5162	1.1276	9.8404
0.6879	0.6281	9.7274
1.0893	-0.1693	9.9768
0.3631	0.1908	9.9762
0.7819	1.1145	9.2841
0.5168	1.3573	9.7334
0.6580	0.8189	10.1072
0.9230	-0.5593	10.6510
1.0911	-0.0054	10.3196
1.1689	2.1804	8.3120
1.6600	2.0764	7.8640
0.8471	1.1097	8.8881
1.7928	-0.2901	10.0905
1.2772	0.6413	9.8787
1.3890	1.6917	8.6925
1.5146	1.2993	8.0895
0.5665	0.6969	8.8630
1.3789	0.0796	8.6644
0.9966	1.7324	9.3529
1.0630	1.2299	8.4000
0.9757	-0.1705	9.8339
-0.3876	0.0544	9.9338
1.0463	-0.0042	9.2386
-0.2812	1.0151	9.1310
0.6084	0.1537	9.1525
1.3711	0.0305	9.9499
-0.0263	0.3511	10.2747
1.8987	0.7172	9.6939
0.9858	2.3115	9.2596
1.1838	0.8034	10.1826
1.7162	0.2465	10.5601
0.7902	0.0395	9.6472
2.2510	0.9332	8.7433
1.8861	1.5553	7.8377
0.9248	1.1097	8.7792
2.0728	0.8608	9.0185
0.7304	0.6538	10.0785
1.8754	-0.1047	9.8512
1.4560	0.8883	9.2452
0.1454	0.7537	10.5894
1.0684	1.2574	9.7064
-0.4307	0.4373	10.0977
1.0504	-0.5127	10.3489
0.4977	0.7813	9.1441
-0.0843	0.8740	10.1138
1.6457	1.8120	8.4604
0.4163	0.8016	9.6227
1.3154	0.3380	10.0851
1.5272	1.7127	9.2680
0.1226	1.1390	10.0737
2.0716	0.9984	9.0915
0.4606	0.2267	9.3804
1.2090	-0.4229	10.1844
1.1462	1.3370	9.3708
-0.3793	0.5192	9.4396
1.7958	0.5880	9.4372
0.3954	0.5444	9.5611
1.0492	-0.0263	10.0408
1.5212	1.7635	9.4372
-0.3942	1.1228	10.0007
2.4807	0.1759	9.6341
0.8488	0.7436	9.8715
0.8177	0.7190	9.0795
2.1320	1.8682	8.8845
-0.9117	0.9440	9.4797
2.0728	-0.4373	9.9284
0.3553	0.2746	10.2436
0.3308	-0.5115	9.8117
1.9029	1.0481	9.4014
-0.5527	1.1797	9.3056
1.5667	-0.6849	10.0319
0.3769	1.0648	9.9164
1.0851	0.4169	9.4755
2.2474	1.1982	9.3690
0.2285	1.7007	9.3487
1.3669	0.5509	9.4779
1.2921	1.2317	9.4037
0.8309	0.4493	9.6335
2.3587	0.5749	9.9146
-0.2189	1.3890	9.3320
0.4756	0.4528	9.1800
1.0798	1.3657	9.0101
0.1663	0.1190	9.6508
1.9304	-0.0263	10.1964
-0.0670	0.9858	9.8350
0.4798	0.9643	8.8953
1.9980	0.9039	9.1992
0.0042	0.1765	10.4518
1.4518	-0.0951	9.7776
0.2171	1.3567	10.1204
0.2997	0.4331	9.2111
2.2080	0.3374	10.0654
0.0837	0.4020	10.1766
1.6690	0.2177	9.7914
0.7705	1.7294	9.5246
0.0479	0.7836	9.0688
2.3467	-0.0102	10.0713
0.4229	0.2471	9.9553
1.3597	0.3942	9.7363
0.7394	1.7886	9.0376
-0.5312	0.6754	9.4366
1.6845	-0.2925	10.0558
0.2650	0.6640	9.9834
0.9428	-0.0275	9.1687
0.7717	1.6157	8.2558
-0.5964	0.3302	9.3122
1.5781	0.1250	9.6520
0.5091	0.7693	9.3164
1.1079	0.0353	9.5629
1.6851	1.5254	9.0203
0.2889	1.1396	8.9683
1.6804	0.4217	9.4827
0.3529	1.1426	9.8835
0.9278	-0.1866	9.7005
1.6074	0.7334	10.0875
-0.5623	1.2245	9.3756
1.5984	-0.6036	9.4337
0.3595	1.0756	10.1928
0.6227	0.0227	10.2915
1.9699	0.9440	9.9798
-0.0724	1.2891	9.6652
1.0672	0.2447	9.1357
0.8381	0.4851	10.2269
0.6287	-0.1531	9.9469
2.2319	0.1089	9.9254
-0.1286	1.7402	9.0293
1.2281	0.4146	8.5687
0.7944	1.4327	9.5300
0.5354	0.3643	10.1826
1.8401	0.1723	10.3298
-0.4355	1.3454	9.1250
1.2945	1.6301	8.4580
1.0379	1.7803	7.9011
0.1567	0.4451	8.5657
1.7473	0.0485	9.3110
-0.2524	0.6945	10.3567
0.4600	0.5617	9.4983
1.0068	0.6790	9.1034
-0.1155	0.3739	9.5347
1.8299	-0.7585	9.5359
0.1496	0.7723	10.1455
0.4624	0.9649	9.4654
1.7001	1.1910	9.0969
0.5270	1.1366	9.3948
2.3545	-0.0341	9.7160
0.9852	1.1049	10.0857
1.2311	1.1946	9.1465
2.1338	0.9571	9.1621
-0.5007	0.4953	10.3375
1.1240	-0.5844	10.3651
0.5749	0.4995	9.7322
0.3236	0.7394	8.8061
2.0052	0.4355	9.2865
-0.5773	1.0373	9.8626
1.5194	0.0156	9.7836
0.9212	1.9119	9.0622
0.9236	0.7005	8.8821
1.8455	0.9254	10.0283
-0.6090	1.1527	9.8267
1.2407	0.2405	9.7148
1.5051	0.9236	9.5551
0.1974	0.5396	10.0576
1.3346	-0.0108	10.0307
-0.2877	0.9571	9.0550
0.3948	-0.2644	9.1920
2.1930	0.7370	9.4929
0.5133	0.7334	10.6133
2.1589	0.0975	9.9230
0.3230	1.9113	9.4576
0.2758	0.1579	8.8809
1.5595	0.5779	9.2829
0.5025	0.4654	9.9032
1.4901	-0.3386	10.4943
0.8740	0.6018	9.9445
0.1310	0.6239	9.2733
1.4465	0.2165	9.7070
-0.6227	0.7531	9.3015
1.7671	-0.3900	9.7351
1.5595	1.5547	9.4414
0.9942	1.4207	8.8061
1.7653	1.1695	9.3134
-0.2154	0.9691	8.9766
1.1527	-0.7956	9.9260
1.7348	1.1354	9.5910
0.7358	1.0636	9.0735
1.3818	-0.0742	8.8235
0.3416	0.7741	9.5228
0.4744	0.1358	9.8189
1.4889	0.5892	10.2035
-0.6790	1.2239	9.6119
1.2802	-0.3290	9.4372
0.4277	1.1593	9.8249
0.5073	0.6526	9.2039
1.8215	0.6018	9.7304
0.0921	0.5198	9.7962
1.3753	0.4965	10.1270
1.1414	1.5793	9.0861
0.8387	1.0552	8.3910
1.6851	-0.5886	9.2691
0.4714	0.3882	10.3920
0.9625	0.9864	9.6801
1.7958	1.3472	8.8899
0.0855	1.7826	8.1164
1.4447	-0.2764	9.4480
0.5019	0.7280	10.4817
0.8016	0.5486	10.0528
1.6588	1.0851	9.4707
0.1496	0.8327	9.4971
1.2951	0.6048	9.4277
1.0205	0.5677	9.7633
0.2489	0.3236	9.3655
2.1051	-0.0048	9.9236
0.0694	0.9661	10.2562
1.2646	0.5641	8.6518
1.0223	1.5805	8.8283
-0.0550	0.4457	8.9048
2.1344	-0.2698	10.4123
-0.0939	1.3759	10.6372
1.1886	0.7525	8.2229
1.1348	1.2646	9.6239
-0.4158	0.2512	9.8057
1.6798	0.3350	9.5724
0.0437	0.8818	9.6664
0.7400	0.8399	8.3551
1.9771	-0.2477	9.8440
-0.6490	0.8692	10.2478
2.1105	0.1723	9.2566
0.1914	2.1374	9.1890
0.5737	0.4989	8.9216
1.6570	0.5856	10.3100
-0.3577	0.5988	9.9086
1.7414	1.1581	9.3110
1.4740	1.2431	9.3517
0.3003	0.2650	9.9595
2.0668	0.6861	9.4378
-0.7902	1.0582	9.2422
0.8471	0.3811	8.9336
1.4937	1.1025	9.4570
-0.0526	-0.0628	10.4572
1.8963	-0.1513	9.3098
-0.3488	0.7149	9.9481
0.2381	0.0999	9.2057
1.7521	0.9960	9.4672
-0.6203	0.4163	10.0785
2.6464	-0.3368	9.5742
0.2716	1.8395	9.7525
0.3021	-0.2512	9.4959
2.5800	1.4811	8.6506
-0.3906	1.3436	9.4953
1.9208	-0.2638	9.0514
1.3017	1.5099	9.6065
-0.4546	-0.2596	10.6001
2.3719	0.4385	9.5443
-0.7083	0.9739	9.6550
0.6730	-1.0612	9.9212
1.2867	1.1701	9.6681
-0.0144	0.8620	9.5700
2.4036	0.4325	9.1698
-0.4241	1.3059	9.5730
0.9912	-0.2082	9.4737
2.0620	1.6193	9.2261
0.0574	1.2257	9.5216
2.4604	0.3511	10.1629
-0.4325	1.5129	9.4456
0.3511	-1.3065	9.6711
1.6911	1.4333	9.0000
0.2847	0.7083	9.2099
1.4859	-0.4792	10.0666
0.1627	0.4648	9.7591
-0.1442	-0.4534	10.3555
1.7043	0.9541	8.9533
0.2548	1.4482	8.7625
1.4883	-0.3458	9.8267
1.1725	1.1049	9.9038
0.3344	-0.0544	10.3639
2.5980	0.6556	9.2889
-0.1944	1.8502	9.0041
1.2951	-0.8494	8.8779
1.3382	0.7645	10.0253
0.3153	0.5563	9.9170
2.1356	0.6209	9.5988
-0.3117	1.6211	9.3254
0.8794	-0.3290	9.5036
1.0989	0.9176	10.0486
-0.0191	1.2849	8.8031
1.7342	0.3159	9.6801
0.1633	1.1910	9.2859
0.3918	-0.2518	10.1605
1.1946	0.5497	9.1950
0.6724	0.9703	9.3170
1.8161	-0.7149	10.1276
0.6000	0.5665	10.6265
0.5647	0.3338	9.6747
1.1162	0.9757	8.8558
1.0786	1.3579	8.3952
1.6319	-0.0640	9.9720
0.6933	0.9206	10.7072
0.8267	1.2120	9.7005
1.9376	0.9864	9.8039
0.4606	1.3400	9.2434
0.9129	0.2094	9.6317
0.5641	0.3745	10.6241
1.2245	1.0331	9.2458
1.7408	0.1400	10.1808
-0.1382	1.2490	8.6159
1.2132	0.5856	8.5848
0.6227	1.1647	8.4281
1.2736	0.6784	8.7015
1.9531	0.2136	10.6127
0.0162	0.7107	10.6480
1.1569	0.4271	9.3679
0.4385	0.9170	8.9808
0.7418	0.5001	8.4263
1.2688	0.3769	9.9224
-0.5055	1.0481	9.7830
1.2831	-0.0826	10.1766
0.9368	1.3555	10.0354
0.2052	0.2674	9.4360
0.9129	0.2949	9.0532
0.1627	0.6981	8.7074
2.1015	0.1155	8.8444
1.7994	0.8321	9.2991
-0.1262	1.2951	9.6939
1.6792	0.2483	9.5784
0.4475	1.0726	9.6664
1.2915	-0.0179	9.5682
2.3216	0.2183	9.7292
0.0491	1.5589	9.7549
2.0147	0.2225	9.3690
0.2746	1.7210	8.7720
0.4941	0.1053	9.1764
2.1134	0.3972	10.2017
0.2847	1.3430	9.7190
1.2203	0.3715	9.9260
0.6078	1.1617	9.0239
0.5880	0.5324	8.9629
1.2658	0.3218	9.7752
0.0987	0.5617	9.7812
1.6289	-0.2165	10.1383
1.1551	0.8064	8.7272
0.5115	0.3434	8.9754
1.1408	0.3063	10.0923
0.0921	0.9846	9.3128
1.7258	-0.0395	9.7585
1.3543	0.4534	10.5140
0.4152	1.0169	9.5168
1.1133	0.7035	9.6400
0.2082	1.6397	8.6889
1.4608	0.0072	9.8739
1.9208	0.6401	10.3399
0.9745	1.2179	10.0187
1.8628	1.3011	9.4157
0.5210	0.9434	9.0729
1.3920	0.7316	9.0711
1.4243	0.5240	10.1443
1.0038	0.2973	10.0486
1.6935	0.3505	10.2520
0.3769	0.3840	10.5678
0.5904	0.5737	9.2039
0.8770	0.5844	9.1722
0.0826	0.3984	9.8051
1.4536	0.3057	10.1036
0.2608	0.4044	11.0895
1.1701	1.2425	9.1040
1.8149	1.4285	8.6799
0.0000	1.5978	8.4903
2.3109	0.8010	8.2642
1.1850	1.6229	10.7934
1.8472	0.5174	9.6891
2.0124	1.4572	9.9200
-1.0881	0.7160	9.6885
2.1781	-0.2602	8.5591
-0.0820	1.0199	10.2771
0.6377	-0.1149	8.9772
2.2498	0.5073	9.8973
-1.1994	0.5551	10.1635
1.6385	-0.3541	9.8596
0.0993	2.2187	9.5814
-0.4325	-0.1484	9.0843
2.3725	0.5713	9.4492
0.2758	0.9069	10.2999
2.0782	0.3254	10.1515
1.8843	2.4197	9.3661
-0.5809	0.2249	9.6729
2.4311	0.2004	9.4115
0.3230	1.2377	9.8662
1.4566	-0.4259	9.6442
2.5370	1.7378	9.1334
0.4510	0.2465	10.1509
2.3611	0.5288	9.8626
0.3476	1.4058	9.5760
1.1940	-0.4702	10.3028
2.2630	1.4662	9.5156
-0.1992	0.9805	10.2263
1.2239	-0.0126	9.9272
0.3236	1.4052	9.1148
0.1513	0.2327	9.7710
1.2568	0.7053	9.5718
0.2471	1.2167	9.5994
1.9627	0.4498	9.8171
0.9170	1.8048	9.1298
1.0959	0.2136	9.6269
1.0504	0.7711	9.5641
0.6688	1.0708	8.9916
2.4688	0.2489	9.3326
0.9051	1.2365	9.5318
1.0810	0.0054	9.7238
1.6439	1.7426	8.9270
0.6993	1.8377	8.2576
1.8000	0.4839	9.0155
0.4534	0.8710	10.4835
1.0690	0.1077	9.6933
1.8419	1.1450	9.3864
-0.4391	1.6008	9.0987
1.6247	-0.0006	9.0939
-0.3284	0.5928	9.8757
0.2824	0.1137	9.5928
2.0177	0.9589	9.4378
-0.9637	0.9057	9.2315
1.3741	-0.8656	9.4959
0.0694	1.2658	9.4241
0.3607	0.7418	8.2743
2.5077	0.8542	8.7314
0.5258	1.5458	10.0773
2.1236	-0.2656	10.1270
1.4171	1.4022	9.1962
0.4331	1.5117	8.8474
2.3360	0.4558	9.0466
0.0670	0.8530	9.5814
0.4618	-0.4510	10.1336
1.0744	1.3639	9.3804
0.0999	1.1994	9.2584
1.3723	-0.2279	10.0983
-0.0335	1.1342	9.5527
0.0365	0.4146	9.1322
1.5930	1.1862	8.8247
0.2662	1.6588	9.4079
1.7264	-0.0114	10.1940
0.7603	1.3119	9.9433
0.3081	0.6802	9.1926
2.2032	0.2566	9.7758
-0.3003	1.3286	9.4181
0.9577	-0.2195	9.3224
1.3292	0.3045	9.2757
0.7789	0.9374	9.0293
1.9854	-0.3212	10.2496
0.5366	1.7144	9.1794
1.1916	0.4205	9.7974
0.8375	1.4536	9.1633
0.5521	1.5954	8.9294
1.2395	0.6754	9.9068
0.6455	0.7932	9.4217
0.6461	0.6179	9.2715
0.8764	0.7543	9.3684
0.0365	1.2849	9.0963
0.9619	-0.3176	10.1132
0.8070	0.1364	10.0408
1.2945	0.8345	9.3056
1.7569	0.6156	10.2795
0.4516	0.6664	9.0275
1.8885	0.8154	9.4097
0.8913	1.2449	9.4797
1.8670	1.1234	8.4406
2.4694	0.4110	10.0815
0.5474	1.2173	10.2717
1.4429	0.5970	9.4325
0.2734	1.3274	9.8973
0.2871	0.1783	9.7405
0.6479	0.4588	10.0636
-0.4020	0.0275	10.2693
0.8417	-0.5982	9.5814
0.5809	0.2578	10.4081
-0.3697	0.6628	9.4002
1.3322	0.9990	8.9066
0.1543	0.9242	9.4079
1.6319	0.4403	9.2111
1.9633	1.4500	10.3758
0.3846	0.8506	9.8787
2.2409	0.2859	9.2955
0.4816	1.5637	9.4331
0.7513	0.5952	9.0137
1.7797	0.5856	9.2751
0.6227	0.5318	9.5407
1.8550	-0.0407	9.5186
0.0873	1.2377	9.5629
0.1161	0.5707	9.6227
1.2502	0.6305	9.9003
-0.5162	1.2042	9.3996
1.2987	-0.3631	9.5802
0.5091	0.4140	10.1282
0.0688	0.5252	9.9948
1.3298	0.4845	9.7196
0.1813	1.3854	9.0711
1.3466	0.2997	9.7034
0.9278	1.3681	10.1736
0.3846	0.8387	9.6227
2.1679	0.1155	9.4689
0.9182	1.3992	9.2847
1.2084	1.0744	8.1218
1.5236	0.8871	8.7996
0.1400	1.0528	9.4145
2.3432	-0.4193	9.3631
0.8339	0.5420	11.1828
1.3286	0.6257	8.8253
1.5745	0.6706	9.7064
-0.7693	0.8393	9.0000
1.2766	-0.0670	9.4516
-0.5264	0.5785	10.0989
0.9194	-0.0957	9.3278
1.8945	0.8859	10.4530
0.0419	1.2323	9.1896
1.9932	0.9763	9.2087
0.2291	1.5224	9.0676
0.5599	0.4475	8.7756
2.0800	0.7878	9.1447
0.4104	0.8435	9.9038
1.8215	-0.1418	9.8512
0.9942	2.1948	8.8713
0.1597	1.3226	8.6991
2.2277	0.1597	9.0801
-0.6281	0.8231	9.7304
0.3745	-0.3673	9.4929
1.9388	1.6570	9.3738
-0.2303	1.0163	10.0432
2.1410	0.0144	10.3728
0.0556	1.6128	9.8656
0.2835	0.5121	8.9850
2.4102	0.7262	9.7058
-0.3224	1.0732	9.9158
1.5332	-0.6437	10.1042
0.9637	1.5123	9.5694
-0.0156	1.0157	9.1399
2.5896	-0.4421	9.9852
-0.1286	1.1491	9.8063
1.4207	-0.6670	9.8356
1.2251	1.4949	9.3607
-0.1107	0.9793	8.6697
1.5117	-0.1065	9.9954
-0.4415	0.9894	9.5336
0.9505	0.9230	9.0717
1.3196	1.4817	8.8283
0.2542	0.7890	9.2297
2.0303	0.7310	9.4528
0.4289	1.2598	9.9828
0.7340	0.6018	9.5820
1.7952	0.7035	9.5042
-0.4469	0.5659	9.9385
1.6397	-0.2136	9.1166
-0.1304	0.6831	10.1539
0.3045	-0.0269	9.3529
2.1799	0.1567	9.6089
-0.6766	0.5456	10.4476
1.8849	-0.1394	9.1094
0.3775	1.9621	9.1094
0.5444	0.3392	8.9581
2.2205	0.9338	10.1976
-0.4158	1.2784	9.9798
2.1302	-0.2321	10.0229
1.6325	2.3450	9.2506
-0.3870	1.0385	9.8709
1.6546	0.1705	9.4893
-0.7573	1.4034	9.1375
0.3966	-0.5282	9.8476
1.8670	1.2652	9.3798
0.1627	0.9117	10.1192
2.2331	-0.4128	9.8823
0.1603	1.7773	9.4701
-0.1220	0.2937	9.6939
1.9406	0.8124	9.1411
-0.7292	1.0504	9.9786
0.9499	-0.6586	9.3278
1.2389	1.1336	9.4366
0.4929	1.0098	10.2544
2.2474	-0.1131	10.2819
-0.3398	1.2580	9.7968
1.5242	0.1023	9.5174
1.1593	1.4620	9.3080
0.1872	0.9625	9.5395
1.8550	0.1968	9.7914
0.2339	0.8800	9.5174
1.2867	0.5617	9.2817
1.2736	1.2197	9.8871
-0.2345	0.4905	9.4456
1.3166	0.0736	9.7591
0.0969	0.9858	9.7639
0.7675	0.7824	9.2129
1.4889	0.9003	9.4181
-0.4092	-0.2459	10.6301
1.6917	-0.6161	9.8464
-0.2829	2.1966	9.4181
0.8231	-0.2130	9.4378
1.5529	1.1001	10.2472
-0.4540	1.1557	10.0827
2.1930	-0.4875	9.7298
-0.0012	1.4913	9.2506
0.1950	0.7053	9.8057
2.4927	0.8746	9.1716
-0.2046	1.2813	9.5198
2.0375	-0.5366	10.2711
0.8339	1.3950	9.3421
0.3380	0.5258	9.4851
2.1057	0.2973	9.5359
-0.7801	1.7521	9.2841
0.7872	-0.6353	9.4863
1.0516	1.3310	9.1818
-0.0766	0.3063	9.5940
1.9196	0.0730	9.4002
0.4259	1.6576	9.6095
0.9392	-0.3236	9.8895
1.8293	0.9984	10.2017
0.2297	1.4847	9.3726
1.5236	0.4726	9.6233
0.2770	1.1850	9.5318
0.4582	0.7489	10.1246
1.6708	0.2865	10.2526
0.1161	0.7448	9.6400
1.7551	-0.2297	9.1800
0.2716	1.0630	9.5970
0.2441	0.4475	9.1800
1.6068	0.6664	9.5796
0.1633	1.1581	9.9792
1.6881	0.3356	9.7902
0.5402	1.0941	9.8500
0.6867	-0.0981	9.9732
1.6762	0.8967	9.7082
-0.8363	1.0492	9.9200
0.6622	-0.8865	9.4480
1.1174	1.0983	9.2596
-0.3458	0.7735	9.8261
2.1428	0.1603	8.6099
0.0814	1.2084	9.9343
0.7364	-0.2189	10.0785
1.9220	1.3597	9.2721
0.3452	0.9577	9.1992
2.3850	0.1202	9.5222
0.3087	1.7533	9.3218
0.4546	-0.2369	9.9176
2.1475	1.1085	9.5048
0.0742	0.8662	9.8775
1.0732	-0.2590	9.2512
0.1292	1.1480	10.0468
-0.0897	0.1454	10.0468
2.4628	0.5695	10.7300
-0.4481	1.7850	9.3673
1.5410	-0.1687	9.1645
1.2772	0.7807	9.3272
0.4558	0.6604	9.4133
1.8586	0.5743	9.4923
-0.3559	1.0116	9.9116
0.9811	-0.9571	9.7752
0.8632	1.0187	9.1788
0.3290	0.5677	8.5914
1.9250	0.3864	8.2073
0.4600	1.0534	8.8923
0.7998	0.2477	9.2458
1.2490	1.6672	8.4813
1.3651	1.1198	9.1447
1.6839	0.8249	9.5455
-0.0132	0.7609	10.4662
1.0672	-0.1561	9.5677
1.5990	0.6479	9.2554
0.3649	0.8112	8.5944
0.9499	0.9057	8.8743
-0.8752	0.4959	9.3589
0.3398	-0.7645	9.8638
2.0614	1.2891	9.3110
0.5785	0.7890	10.3896
1.9005	0.3105	9.6460
0.1478	0.3440	9.7920
0.0598	-0.6024	9.8985
2.3491	1.3681	8.3976
-0.1765	1.4429	9.7986
2.2546	-0.3284	9.7740
0.5240	0.8758	10.1760
0.9051	-1.1916	10.1659
2.2277	0.8650	9.0466
-0.4899	1.1713	8.8438
1.5529	0.4498	9.1549
0.1149	1.4393	9.5443
0.6161	-0.2662	10.2849
2.7236	1.0576	9.1357
0.4516	1.2831	10.2167
1.7856	0.9051	9.6209
0.9476	1.1318	9.9577
0.2249	0.2524	10.0301
3.0119	0.1908	8.7158
0.4774	1.3938	8.7391
1.5984	0.2405	9.3475
1.1408	0.8620	9.5593
0.8584	-0.2889	10.1419
1.7085	0.8106	9.4749
-0.2118	1.2377	9.4773
1.2102	0.2590	9.1268
0.2477	-0.1370	9.9421
1.2766	0.0897	9.8129
1.4871	0.9793	10.0923
0.3164	1.2766	9.2321
1.7432	0.4331	9.6849
-0.0837	0.5396	9.8697
1.0056	1.0319	8.9826
1.4734	1.2293	9.3367
0.9870	0.8913	8.5435
2.3749	0.3320	9.8117
0.2620	0.0939	9.9696
2.2014	0.3176	9.6687
1.4124	1.1587	9.3643
0.5677	0.0030	9.4061
2.2421	1.1976	8.8175
-0.2219	1.2550	9.2853
2.4574	0.3254	8.9174
0.2889	1.1210	10.3274
-0.0903	-0.1430	9.2745
1.9549	1.1085	9.4002
-0.3194	0.7011	9.8482
2.4209	0.1663	9.7836
0.4720	0.7011	10.4781
-0.8530	0.1017	9.1752
2.2672	0.7902	8.6159
-0.7783	1.1533	8.9647
1.5882	-0.1687	9.2877
0.1507	0.5438	9.4468
0.3517	0.0957	9.6382
2.3300	1.1509	8.9072
0.4367	0.9739	8.9132
2.0435	0.6790	9.2099
0.4947	1.1892	9.5258
0.3069	-0.0173	9.6598
2.0644	1.0451	9.4313
0.6796	0.6903	9.1692
1.4997	0.5743	9.4821
0.0520	1.0714	9.4965
0.3685	-0.1011	9.8679
0.2602	0.6203	10.3836
-0.4289	0.3003	9.5437
1.1719	0.1561	9.7675
0.1633	1.2544	9.4025
1.1097	0.3505	9.2650
1.0792	0.7998	9.2859
0.9129	1.0893	8.7433
2.0482	1.0756	9.6071
0.7914	1.3974	9.6975
2.2941	0.3356	9.9349
0.7280	0.7208	9.8668
0.9745	0.7077	8.2229
1.4345	0.6371	8.8133
-0.0018	0.6867	9.1974
1.4680	-0.0664	9.7184
-0.5300	0.0263	10.6342
0.5880	-0.0185	9.6173
1.6307	0.0664	8.9389
0.3440	0.8722	9.7256
1.3795	1.4153	8.9958
-0.2512	0.8040	9.0412
1.6642	0.1801	9.5246
1.6253	0.7495	9.3960
0.9571	1.4195	8.7840
2.7481	0.8734	8.9389
-0.0634	1.5739	8.7589
2.0183	-0.1537	9.8883
1.8293	1.1803	9.2578
0.1065	0.9775	9.2452
3.3577	0.4080	8.7511
-0.2524	1.6122	8.9838
1.9693	-0.5055	8.7607
1.4261	1.1270	9.7028
-0.9039	0.9302	8.1762
2.1697	0.0879	8.7122
-0.7155	1.4530	9.0741
1.4823	-1.1133	10.0869
1.2425	0.7830	10.0067
-1.0415	0.6389	8.7984
2.0375	0.5850	8.6877
0.0873	1.8867	8.8049
1.3208	-0.2824	9.7776
0.8554	1.0223	9.6047
0.3392	0.4307	9.9816
1.7354	1.1091	8.8821
1.0289	0.9499	8.6943
1.4620	0.3817	9.3906
0.6730	1.1904	9.8303
0.5832	-0.1813	9.7525
1.0259	1.2742	9.5353
0.6538	0.7854	8.6608
1.3298	0.5228	9.5671
-0.0173	1.2861	9.6239
1.1426	-0.3870	9.5132
0.9482	0.8650	10.3166
0.6209	0.7603	9.3469
2.2175	0.1609	9.0526
0.3470	1.6929	9.0191
1.5511	0.1908	9.3373
0.3823	0.4337	9.9110
0.5988	0.1430	9.7405
1.6217	0.6867	9.8494
0.5910	0.8399	9.9421
1.6044	0.7621	9.5001
0.1962	0.9039	9.6454
1.7515	0.2847	10.2107
1.3160	1.3065	8.8923
0.9368	0.5910	8.9820
1.9214	1.0546	9.4743
-0.1161	1.5583	8.8917
2.4813	0.1406	8.6841
1.0929	1.8478	9.5042
-0.4421	-0.6975	9.3960
2.2433	0.1238	9.6442
-0.5856	0.6748	10.5343
1.4088	0.0407	9.0891
1.1599	1.7456	9.1172
-0.1172	0.0066	9.8829
1.4710	1.7473	9.2709
0.4002	1.1300	10.0235
2.0357	0.2895	10.3495
0.6562	1.0146	9.9667
0.9733	0.2829	10.0169
0.9158	1.6325	8.8594
0.0054	-0.1071	9.0723
2.0931	0.3266	10.0169
0.5988	1.6313	9.5772
1.3848	0.7442	9.2847
1.3735	0.6084	9.2488
0.4235	0.2596	9.7405
2.1541	0.9057	9.2889
0.6269	0.9362	9.1483
1.4794	-0.1280	9.5150
0.5438	0.7155	9.2069
0.6981	0.5503	8.4987
0.3302	1.5523	9.5946
0.4750	-0.2459	9.6137
1.7438	0.0473	10.0707
-0.2369	0.8453	10.4356
2.0716	0.5342	8.7858
0.4313	0.6820	10.0749
1.1868	-0.1119	9.8572
1.4082	1.3095	8.6452
0.1896	0.5838	8.4347
2.2744	1.0014	8.4149
-0.6837	1.2293	9.9655
2.1218	0.3661	9.4995
1.2401	1.4333	10.1162
-0.5593	-0.3488	10.3220
2.7302	1.5446	8.5381
-0.6562	1.2652	9.4187
2.4048	0.3721	8.6357
1.5260	1.2598	9.4684
1.1366	0.2435	10.0498
3.1244	1.7587	8.9036
0.4092	1.2700	9.1555
2.3689	1.0301	9.2500
0.5976	1.2251	9.7172
0.9595	-0.3673	10.5236
0.7340	0.2967	10.4117
-0.4002	0.0784	9.6687
1.5709	-0.1627	10.1090
-0.7717	0.9440	9.9678
0.4469	0.1645	9.2865
0.1902	0.1956	10.3022
-0.1902	-0.1262	10.7377
1.5338	0.5934	10.1294
1.0457	1.4327	8.8546
1.2072	1.3370	8.7242
0.4588	0.9775	9.0347
1.7192	0.2160	9.5306
0.7759	0.4726	10.0013
1.7539	0.6419	8.5824
2.2086	0.1310	9.6400
0.5234	1.6301	9.2506
1.9567	0.8578	9.4091
-0.0718	0.4552	9.6729
0.3625	0.3697	9.1340
1.5787	0.6580	9.3798
0.8351	1.4602	8.5423
1.7013	0.3571	9.1363
-0.1699	1.4776	9.0658
1.6660	0.8345	9.6430
0.8572	1.1109	9.5641
0.1137	1.0301	9.1220
2.0817	0.3823	9.7872
-0.7226	1.5356	9.5581
1.9555	-0.1986	9.2745
1.1838	0.9523	8.8145
-0.8578	0.0431	9.6299
2.9240	-0.0628	8.6727
0.1406	1.5123	9.2781
1.8909	-0.8094	10.1671
0.7238	0.4349	8.2773
0.9511	0.3458	9.1453
1.4034	1.2520	8.8061
0.1328	1.0343	8.4705
2.3569	0.0586	9.0167
0.8853	2.0124	8.8983
1.1629	0.3296	7.9615
0.9751	1.3968	8.1810
-0.3942	0.1681	9.2004
0.6287	0.7442	9.4295
0.5988	-0.1436	9.2386
1.2269	0.2441	8.8570
0.6000	2.5268	8.9377
1.5840	0.2656	8.8546
0.4923	1.0792	9.4205
0.4947	-0.4540	9.6664
1.5709	0.2052	10.3950
0.9458	1.3914	9.1052
1.5960	0.1836	9.3116
-0.0311	0.4792	10.2239
1.2514	0.9990	8.6416
0.5821	1.9166	8.5489
0.1137	-0.5162	9.4612
2.3982	0.3398	8.4221
0.4929	2.3121	9.6999
2.8887	1.0965	8.4508
0.4367	1.3047	9.1310
1.3824	-1.0092	10.5900
2.6004	1.1228	9.1663
-1.1838	0.8518	8.8109
2.5555	-0.0203	7.7294
-0.2429	1.9579	8.5549
1.6457	0.4917	8.9419
2.1332	1.2401	10.3537
-0.5749	0.0144	10.0576
2.8887	1.5141	8.8103
0.3834	1.9938	8.6799
2.2977	-0.2566	9.5647
1.7013	1.7844	9.6514
0.1484	0.4845	9.7513
1.7916	0.7908	9.0981
0.4971	0.1950	9.7525
1.8514	0.1472	10.2532
0.2758	1.3370	9.4325
1.1043	0.0981	9.1106
0.0670	0.8572	9.1854
-0.2171	-0.8046	9.8141
1.5272	0.6814	10.6325
0.3194	1.1844	9.4175
1.2652	1.0827	9.6484
0.3559	1.1444	9.3020
1.7623	0.8871	9.4091
0.3332	0.8710	9.9900
0.1484	0.1137	9.1196
1.7599	0.5599	8.5232
0.7513	1.1198	8.6512
1.7228	0.2070	9.2321
0.4187	0.4971	8.9425
2.3922	0.4917	9.2123
0.8889	0.8913	9.5078
0.8004	0.7286	9.2596
2.5735	0.0694	10.4512
-0.3129	0.7220	9.9613
2.2277	1.2000	7.4524
0.1244	2.9396	8.2241
0.2237	-0.2183	8.3072
2.1822	0.6060	8.5393
-0.4128	2.0686	10.0767
2.5370	0.7119	9.4241
0.7783	1.6959	9.7016
1.6899	-0.1454	10.2472
1.0193	1.4865	9.8865
-0.6592	0.1759	9.0269
2.0500	-1.1246	9.1770
-0.7651	0.8758	9.3182
0.6251	-0.4995	9.0023
-0.0676	0.9015	8.8043
-0.1795	0.1813	8.7810
0.9129	1.4130	9.2835
1.3537	-0.2758	9.6825
2.2122	0.2148	10.7593
1.2574	2.4287	8.9988
1.9214	1.1252	8.7469
1.0684	0.9846	9.1591
2.0327	0.3757	10.0779
1.5218	0.9218	9.0047
1.0367	0.4528	8.6943
1.2628	0.4923	10.1150
0.1178	1.3232	9.1788
0.9942	-0.2195	9.2787
-0.0156	0.7178	9.5928
0.4134	-0.1717	9.3373
1.3573	0.7376	9.4612
0.3517	0.9559	8.6901
1.6780	0.0712	9.6203
-0.6718	1.0301	9.7226
1.6786	0.6311	8.7804
0.3272	0.6700	9.7860
-0.2399	-0.7083	9.2907
0.9721	1.2766	8.3665
-0.2136	1.9878	7.6953
1.9789	0.8088	7.9381
-0.1819	1.8682	8.9300
1.8544	-0.1627	8.8355
1.5613	1.7234	8.8121
0.3906	0.7298	9.7890
2.5968	0.8453	9.1399
0.5635	1.3986	8.6105
1.5416	0.4217	8.6650
0.6257	1.2120	9.3140
1.0409	0.6736	9.4695
1.5176	0.9595	9.8219
-0.1944	-0.7525	9.7369
1.8281	-0.3027	9.3720
-0.0622	1.8885	9.3344
0.9123	0.3242	9.2189
0.7836	0.7119	10.0241
1.0989	-0.0060	10.4422
0.9571	1.0917	9.9493
-0.1286	0.5474	8.3234
1.1934	0.2064	8.6398
-0.1507	1.5051	8.7397
2.0722	1.6313	8.0004
0.2776	1.1533	9.8033
0.5468	-0.3936	10.2221
0.9290	1.7593	9.4014
-0.0568	0.6096	8.5794
3.1735	-0.1214	8.5268
0.0090	1.2484	9.5748
2.6752	0.8154	8.9964
1.3585	1.6504	9.0436
-0.3727	0.7681	9.0849
2.7781	0.8387	8.9431
-0.4205	0.7322	10.1359
2.1129	0.1436	10.1844
-0.1992	1.0044	9.6203
-0.4301	-0.0748	10.0121
1.1432	0.7382	8.6668
-0.6730	0.3057	9.2267
2.1673	0.2171	9.9014
0.0652	2.0010	9.5868
1.2245	0.2800	9.7447
1.5362	0.9075	9.8099
0.1591	0.7125	9.7028
1.7671	0.5288	9.1501
0.7741	0.9661	9.0424
1.7581	0.2004	9.8853
0.7125	0.5575	10.4620
1.2323	0.2435	9.8901
1.3286	0.9200	9.7752
0.0634	0.6598	8.0249
1.3202	0.3978	8.5256
0.5438	1.7133	9.6370
1.0169	0.1609	9.7328
0.8381	0.2321	9.7375
0.4385	0.9099	9.6705
0.9781	0.8853	9.5790
0.5007	1.1091	9.9858
1.5697	-0.0915	10.6043
0.6885	0.2991	9.9164
1.5912	0.2812	9.9272
1.6080	1.8472	9.4115
1.0618	0.6903	8.1619
2.1481	0.5001	9.4648
0.0287	1.2096	10.8113
2.3743	-0.4146	10.0606
0.5462	0.8985	9.8853
0.4582	-0.0126	9.2512
2.1787	0.5695	8.7535
-0.7597	1.6427	8.9766
1.8126	0.5037	9.5647
0.4792	0.8435	10.2987
-0.4445	-0.7017	10.7234
1.8132	0.7639	9.0885
-0.2004	1.3358	8.9150
1.0038	0.4636	9.7154
-0.2357	0.5785	10.2406
-0.4283	-0.8518	10.5092
1.1635	1.0498	9.0502
0.2614	0.4714	8.9892
2.1242	0.4259	9.8829
-0.1376	2.1087	8.6357
1.0923	0.7741	8.4424
1.5954	1.3513	9.2321
1.4835	0.1460	9.7214
3.0867	0.8847	9.5156
1.3202	2.2169	9.0161
1.9358	0.5444	8.9605
1.1360	0.2991	9.1363
1.0481	0.1454	9.1381
1.3890	0.1968	9.6975
0.1741	0.9984	9.3990
1.3131	0.2471	9.2458
0.1513	0.2363	9.8985
1.0433	0.5019	9.1609
1.2395	1.3777	9.5126
-0.0485	1.2724	9.3852
1.4859	0.8136	9.6526
-0.3894	0.6407	10.3316
0.1633	0.0736	9.0161
1.2825	0.9290	9.1944
0.3284	1.1988	9.1417
1.3310	0.2506	9.7603
-0.1340	0.2417	11.0524
1.3711	0.1448	10.1904
1.8425	0.4624	8.8438
1.0229	1.3178	8.7661
2.3737	0.9811	8.4299
0.1926	0.6550	9.1651
1.6445	-0.4146	9.6364
2.0895	1.3041	9.2404
0.0849	1.5404	9.2853
2.2379	0.1095	9.0741
0.2171	1.3693	9.2309
0.6628	-0.2997	9.6083
2.3378	1.6851	8.8295
0.0443	2.0716	9.6574
2.0674	0.3194	9.3487
0.6335	1.3980	9.7836
0.1687	-0.4516	9.5772
2.3109	1.8688	8.7679
-0.0808	0.6796	9.6568
1.7061	-0.2441	10.2981
0.7735	0.5097	9.9343
-0.1047	-0.0138	10.7766
1.2215	0.8207	8.6524
0.4271	1.8054	9.0514
1.6588	0.2536	9.2853
0.8094	0.3697	9.7405
1.2215	-0.0730	10.6827
1.7462	1.2562	9.6514
0.6598	1.0947	9.2237
1.6600	0.9852	8.6476
0.9649	0.4774	9.4468
1.0427	0.8925	9.2961
1.2096	0.6969	10.4165
0.6120	1.0618	9.4516
1.9035	0.1232	9.8434
0.8076	0.4971	9.4043
1.1970	1.6863	8.4113
1.4142	1.3388	8.4759
0.4068	1.1617	8.2175
1.3334	0.9434	9.1567
0.2417	0.4941	10.5020
1.2688	0.3996	9.1698
1.9125	0.1735	10.8047
-0.3326	0.0377	9.2554
1.0271	-0.5527	9.5976
-0.0108	0.6365	7.9250
0.7472	0.7974	7.9262
1.9406	0.7418	8.0745
0.1807	2.1278	10.2358
1.5057	-0.8028	10.2999
1.3346	1.4889	9.7304
-0.1507	1.7683	9.2937
2.2355	0.3296	9.4384
0.5946	1.0816	10.1563
0.4887	-0.0084	9.8374
2.6195	1.6540	9.2823
-0.2010	1.4794	9.3511
2.0554	-0.4080	9.1794
1.1886	1.9777	9.1034
0.0897	0.5898	9.0969
2.9025	0.7986	9.2991
-0.2518	0.9721	9.9146
1.1491	-1.2933	10.2969
0.3990	0.9858	9.6580
0.1813	0.4923	9.3553
1.8305	0.0305	9.5485
-0.0987	0.2931	9.3649
0.5898	0.0353	10.3064
1.1701	0.7872	9.5234
0.2261	1.8718	9.5437
1.8963	0.6173	9.5240
0.4869	1.2227	9.5521
1.1545	0.8614	8.8833
1.0397	0.9057	9.6658
0.9236	1.2060	8.6147
1.6259	0.5031	9.8955
1.0337	0.6413	9.6035
1.1623	1.0403	9.3786
1.6379	0.6485	9.9062
0.8315	0.8835	9.1220
1.1336	0.5462	9.8093
1.0678	0.6173	9.7848
1.2149	1.1922	9.3224
1.5045	0.5186	9.4839
0.0239	0.2644	9.5581
0.3182	0.6209	9.1352
0.8028	1.0498	9.2865
-0.3589	1.3358	9.3966
1.1043	0.0909	9.5545
0.0945	0.3517	10.7946
0.6473	0.2554	9.3607
1.8993	1.4584	9.6137
0.2207	1.3812	9.6957
1.3376	-0.5402	9.7734
2.1434	1.4698	9.0275
0.7011	1.6762	9.1734
2.3898	0.5091	8.8630
0.3721	1.2299	10.2490
0.5168	-0.2148	9.3463
2.2875	0.8913	9.9026
-0.4606	0.8764	9.9876
1.8766	-0.9176	10.1461
0.8040	1.5129	9.8518
0.4211	0.2818	9.8781
1.8622	0.4905	9.5581
0.1836	1.3717	10.2526
0.7657	0.1765	9.8416
2.0369	1.7862	9.5222
0.1292	1.9669	8.9623
1.4153	-0.1860	9.4516
0.6796	1.0163	9.3679
1.3854	0.9858	9.5820
1.2347	0.1854	10.3776
0.4690	0.5192	9.9050
1.0827	-0.3996	10.0354
1.6116	-0.1316	9.5312
0.0030	1.4177	9.0622
1.0313	-0.0664	9.2374
0.7113	0.0126	9.9487
1.0259	1.6050	8.5974
1.7246	1.0379	9.8231
0.7101	1.0642	9.6753
1.0570	-0.0395	10.3537
1.2317	0.1519	9.6711
0.4265	1.2353	9.6370
0.8542	-0.3547	9.6598
0.2847	0.3392	10.3525
0.7591	1.0397	9.0825
2.1781	0.5486	8.9431
0.7872	1.4530	9.4396
0.8937	0.2004	9.4199
2.0919	1.3454	9.5342
1.1234	0.9978	10.1455
1.1785	0.0497	8.8510
0.3236	0.6616	10.0097
0.9206	-0.0359	9.3972
1.5834	0.7107	8.8678
-0.8082	0.5372	10.0067
0.6796	-0.5001	9.1770
0.9111	2.1248	9.6029
-0.7830	0.5725	9.8584
1.6277	0.1083	9.0107
0.6682	0.6030	9.8925
0.8016	0.3499	9.3810
1.2532	1.3089	9.0771
0.1184	0.2578	9.5706
1.3705	0.9057	9.0676
1.5763	0.5246	9.7214
0.7705	1.0337	9.3355
1.6600	0.4074	9.5958
0.9918	2.1374	9.8321
0.4062	0.7005	9.5760
1.7378	-0.3733	10.2281
0.7292	1.3759	10.0654
0.8662	0.5127	9.8781
1.3866	-0.0574	10.2382
-0.0640	1.2203	9.2536
0.6449	-0.1250	9.3110
1.3795	1.0259	9.4492
-0.5509	1.4536	8.7792
0.7155	-1.4351	9.6897
2.0698	1.3633	9.4456
0.6138	1.6277	9.1591
1.0923	0.1388	9.3080
0.2746	1.2760	9.5018
1.5015	0.7920	9.1770
1.6457	0.2548	10.2867
0.3523	1.4130	9.3433
2.0399	0.4116	9.9822
1.1791	0.3924	10.0648
-0.4510	1.0427	9.5383
1.4919	-0.5378	9.6699
0.8004	0.7454	9.8177
0.7723	0.8871	9.0155
1.4800	0.1454	9.5324
0.7657	1.0953	9.6029
1.1976	1.5410	8.9700
0.6185	0.5354	10.2687
0.3679	-0.0873	9.5252
0.9721	1.4100	9.1716
1.1701	0.6263	9.9146
0.3051	0.7848	8.7816
1.1156	0.0748	9.5545
0.8608	1.0199	9.6795
0.6084	1.1599	9.1698
1.5057	0.5533	10.0540
0.1549	0.5079	10.8263
1.0259	0.8686	9.5180
1.6780	0.3176	10.1922
-0.8016	0.1561	9.9098
0.9446	0.4780	8.5842
1.8359	0.9667	9.8135
-0.6012	0.5426	9.3696
1.6199	0.6335	9.6083
1.9268	2.2355	9.7232
0.0156	0.7202	9.5880
1.7384	0.5091	9.1034
0.5294	1.6163	10.1006
1.2120	-0.1053	9.3344
1.7767	0.9930	9.4863
0.5976	0.6359	10.2933
0.8985	0.0676	9.3966
1.1599	0.9398	9.2004
0.1178	0.5629	9.2584
1.6768	-0.4062	9.4959
1.4955	1.0768	9.8147
0.4947	0.8590	10.3280
1.5362	-0.1537	9.6448
1.3244	2.3886	9.6346
0.5844	0.4247	9.3344
1.3394	-0.4989	9.8464
0.8046	2.0112	9.4420
0.6042	0.0138	10.0971
1.4201	-0.2937	10.0091
0.4738	1.3166	9.7471
0.5204	0.0138	9.2440
1.3388	0.4780	9.1226
0.6443	1.7168	8.8067
1.2227	0.2483	9.7884
1.8598	0.8351	9.5485
0.0108	1.2897	9.7256
1.1713	-0.4325	9.6610
1.3687	1.6696	9.2386
-0.4522	1.1300	9.2763
1.1904	-0.7316	9.8745
1.1318	1.0624	9.3613
0.7495	0.8782	9.0550
1.3089	0.1131	10.0725
0.5719	0.9709	9.7627
1.3244	1.0026	9.6556
1.3196	0.2560	9.8392
0.6024	1.1761	9.5108
1.7832	1.3101	8.7679
0.8488	0.2495	10.4338
0.7340	0.5581	9.1124
1.0373	0.8728	9.2662
0.6323	-0.2363	10.3357
-0.1777	0.9314	9.3978
0.9440	1.2437	9.0107
0.8668	0.5593	9.3272
0.1585	0.9589	8.6374
1.5194	1.1270	9.4205
1.5619	0.7196	10.0450
0.5450	0.7340	9.2016
1.1013	0.3218	9.8937
1.3047	1.0971	9.7310
0.1777	0.4391	9.8004
0.7436	-0.5862	9.8171
1.2616	1.6379	9.1118
0.3846	0.8183	8.3371
1.1683	-0.1777	9.6209
0.9476	1.8544	10.4111
2.1236	0.6227	9.0364
0.9416	0.8823	10.1587
0.6144	0.7789	10.3232
2.0285	1.3567	9.7986
0.4923	0.2357	9.4037
-0.3404	-0.2273	9.9690
1.7097	1.9824	8.9108
0.0132	0.7184	8.4975
0.0903	-0.5073	9.2033
2.5256	1.6433	9.4157
0.0652	0.1280	9.5784
-0.0341	0.1717	9.3726
2.7200	2.4209	9.6239
0.4983	-0.1023	10.0121
0.4857	0.6754	9.4540
2.3880	2.4335	9.7627
0.6347	-0.0311	9.6424
-0.1890	-0.6054	9.1603
1.8149	2.0106	9.4989
0.5151	0.0383	9.8075
0.0078	-0.5671	8.9916
1.5793	1.4548	8.8396
0.9858	1.1127	9.5964
0.3027	-0.3464	9.0634
2.0554	0.9583	9.2949
1.0570	1.0486	9.7340
-0.4361	0.1663	9.5359
1.5505	1.0157	8.9449
1.0780	1.2784	9.1082
0.0341	0.2841	9.0622
1.6492	1.3651	9.2554
1.2257	0.9170	9.1800
0.1669	0.9697	8.7475
1.5458	0.8393	9.4067
1.0558	0.6616	10.4243
0.2034	-0.1178	8.7535
1.1216	1.5942	8.9982
1.0403	0.7149	8.7870
0.0921	0.6233	8.8247
0.6030	1.2634	8.3497
1.0672	0.5635	9.6029
-0.3266	0.8243	9.1645
1.1097	0.7765	9.1908
0.9655	-0.3135	9.3529
-0.5617	1.2179	9.3978
1.6169	1.2532	9.3403
0.8572	-0.4648	9.6448
0.0873	1.2604	8.7086
1.4010	1.7360	8.8163
1.1426	-0.0365	10.2358
0.0604	0.8782	8.4101
1.1838	2.2768	7.7724
0.7771	-0.1466	9.7058
0.1155	0.2064	9.8721
1.9041	2.0207	9.1011
1.6588	0.6634	8.8085
0.6066	0.3242	10.8598
1.3992	2.3456	8.9084
1.1390	1.6014	8.7529
0.3266	-1.1378	9.7657
1.2030	2.3019	8.4598
1.0421	1.0068	8.7619
0.9721	-0.5246	9.1585
1.0151	0.8530	9.5796
1.3220	0.3978	9.3822
1.4345	0.4086	10.1042
0.5767	1.1282	9.6448
1.0217	0.6915	9.6670
1.4261	0.9667	9.3643
0.6682	0.9392	10.1485
0.7513	-0.0317	9.9421
1.7503	1.5834	9.9003
0.5910	0.8189	9.5036
1.0540	-0.8483	10.1497
1.3478	1.1097	10.7294
0.4522	0.4313	9.0592
1.4124	0.5749	9.5258
0.1472	0.7531	9.9954
0.8297	0.9099	8.7756
1.2036	1.0235	9.0125
0.7448	0.3392	9.2847
1.4285	0.5408	8.4801
1.4231	2.5567	9.1034
1.0211	0.0694	10.4524
0.6269	0.1711	9.8506
1.1354	1.2341	9.3541
0.1507	-0.4684	10.3986
1.0319	0.3057	9.7944
0.7609	1.2072	10.1120
0.6622	-0.6915	9.3182
1.8455	0.0826	9.8273
0.5300	1.6271	8.3856
1.3555	1.6044	7.5433
0.3476	0.2800	8.8815
0.3039	0.9822	9.3152
1.6080	1.9878	8.6494
1.0092	0.1484	7.9699
1.1085	0.1143	9.0795
1.1288	0.9051	9.1609
0.9834	-0.1095	10.8089
0.6790	0.2022	9.6969
-0.1908	0.9954	9.0478
0.7890	0.8548	7.7605
0.7807	0.3942	8.8468
0.9840	0.7208	9.3643
1.3609	2.1763	9.0466
0.6156	-0.2752	10.3627
1.1330	-0.5468	9.5108
1.1192	3.4127	9.1447
0.0748	0.3099	9.0532
0.7334	-0.0150	9.5300
0.0084	1.0618	9.7070
0.9571	-0.2471	9.0765
1.3765	-0.4810	10.0528
1.1545	1.5523	8.5854
1.1252	2.5525	8.2008
1.6893	0.4857	8.4897
0.5043	1.0068	9.6418
1.3663	0.7418	9.4689
0.8040	0.2614	10.6001
1.1270	-0.4068	9.8769
-0.0317	0.6867	8.3294
1.2377	1.4937	8.1541
0.3380	0.0849	9.5150
0.6688	0.1107	8.9348
1.0331	1.4794	10.5152
0.6108	-0.2351	9.8907
0.9517	0.4816	8.8947
0.1525	1.2173	8.0847
0.9302	1.0235	8.2145
0.4355	0.0006	8.9934
1.0821	1.2120	8.8055
1.1503	1.3962	8.7427
1.6134	-0.4032	10.7605
0.6245	1.5129	9.8979
0.7071	0.8154	8.8289
0.6221	0.5952	9.1148
0.5145	0.3864	9.7854
0.7950	0.5246	9.6580
1.1934	0.8907	9.8715
1.2718	0.2949	9.3158
1.1611	0.6802	9.6209
1.0905	0.6323	8.7385
1.3460	1.1133	8.1990
0.4223	1.4608	9.2428
1.0026	0.5198	9.2632
0.4606	0.8034	10.0654
0.6502	0.2668	10.0085
1.0887	0.5276	9.9702
0.7908	1.6588	9.1399
0.7280	0.6604	9.4067
0.8812	-0.4654	10.1970
0.8142	1.1306	9.1800
0.8530	1.3310	9.0221
0.7466	0.5677	9.3720
1.4291	0.8345	9.9367
0.7854	0.1896	9.8967
1.3513	1.3603	9.4582
0.5988	0.6933	9.3978
0.5934	0.8961	9.4199
0.5928	0.6718	9.5198
0.8034	0.7406	9.4486
0.8387	-0.0269	10.0875
0.8201	0.9781	9.3565
1.6080	1.0810	8.8642
1.0253	0.4516	9.7842
1.3902	0.1986	10.2646
1.0038	0.6873	9.5401
1.4883	1.3483	8.9324
0.8004	0.5958	9.4079
1.1916	0.7244	9.4773
0.8668	1.4895	9.0867
0.9655	0.9254	8.8121
1.1402	0.2662	9.2775
0.9332	0.6323	9.8422
0.7244	0.3966	9.3792
1.1605	0.9111	9.9164
0.7286	0.7059	9.1280
1.1180	0.6167	9.6616
0.4624	0.1358	9.3984
1.0666	1.1892	9.2853
0.8620	0.5803	9.6335
1.1324	0.3392	9.6658
0.8142	0.8399	8.6584
1.1988	1.2831	8.8396
0.9332	-0.2028	9.4187
1.1521	0.4630	9.6921
0.5414	0.9799	9.3236
1.2586	1.2837	9.1011
0.7370	0.5809	9.8219
1.1336	0.4971	10.1826
0.9452	0.6473	9.7322
0.7830	0.8853	9.7005
0.7549	0.9577	9.1082
0.2411	0.3135	9.6442
0.6114	0.7202	9.4869
1.3633	0.4271	9.4875
1.4477	0.7334	9.6735
0.8177	0.3996	9.7549
1.2377	0.9194	9.4199
0.9769	0.9356	8.8737
1.0349	0.9505	9.2183
0.9051	0.1460	9.6311
1.0702	0.9147	9.8386
0.7717	0.7531	9.3667
0.5821	0.7908	9.5312
1.3442	0.5773	9.3481
0.5174	0.7591	9.9870
0.8764	0.5761	9.4408
1.0935	1.0917	9.5629
1.0074	0.4923	9.5024
1.0086	0.1920	10.3651
1.1366	0.3362	9.6400
1.4494	1.4255	8.9820
0.1376	0.0610	9.4660
1.5057	0.5886	9.4414
0.5198	0.6664	9.7884
1.0618	0.7789	8.8654
0.5456	0.7789	9.2644
0.6251	0.5480	9.4516
1.6857	1.2610	9.0801
0.1161	0.5456	10.2478
1.0463	0.3296	9.5389
0.9135	0.8267	9.8512
0.8423	0.5934	9.7459
1.4357	0.9972	9.3439
0.4618	0.3763	10.1294
1.0845	0.7980	9.3517
0.7232	1.0050	9.4618
1.1013	0.0748	9.8829
1.2347	0.8704	9.4366
0.6269	0.5491	9.9194
1.3244	0.6359	9.3966
0.2847	1.2425	9.0323
1.0684	0.0269	9.7908
1.2514	0.6251	9.8889
0.8716	0.5563	9.8434
1.0774	0.6287	9.8153
0.8459	0.9314	9.3876
0.9236	0.2865	9.5359
1.1719	0.5474	9.4169
0.5653	1.3316	9.3481
1.0217	0.5647	9.6915
0.9811	0.6132	9.7005
0.6993	0.6616	9.4516
1.2108	0.2082	9.9068
1.2126	0.9362	9.7453
1.2245	0.7543	9.8045
0.9655	0.3930	10.0474
1.0151	0.7663	9.5539
0.6873	0.5731	9.6352
1.1791	0.4720	9.7902
0.8746	0.8746	9.5898
0.9787	0.6138	9.6197
0.9523	0.6036	9.7986
0.7286	0.7926	9.4827
0.8447	0.6628	9.3744
1.0570	0.5563	9.7196
0.9589	0.6377	9.5820
0.9547	0.8058	9.5521
0.8477	0.7017	9.7489
0.9398	0.6257	9.6137
0.9811	0.6144	9.4259
1.0780	0.4875	9.6795
0.8500	0.6449	9.3918
0.8273	0.7478	9.4354
0.8955	0.6239	9.7621
0.9870	0.5940	9.6562
1.0409	0.7053	9.6263
0.9840	0.4917	9.7238
0.7801	0.8106	9.2368
0.9284	0.7196	9.5007
0.8500	0.7693	9.5324
0.9314	0.8112	9.5353
0.9170	0.6712	9.7926
0.9739	0.6419	9.5659
1.0343	0.6407	9.3870
0.8662	0.5330	9.7495
1.0247	0.7202	9.4630
1.0008	0.7537	9.4941
0.9003	0.5480	9.6646
1.0630	0.5635	9.5413
0.9021	0.7089	9.4307
1.0618	0.6981	9.6837
0.8142	0.6760	9.6676
1.0020	0.6574	9.4737
0.8806	0.7394	9.7148
1.0157	0.6897	9.4516
0.9320	0.6544	9.5659
0.7759	0.6269	9.4947
0.8100	0.6796	9.4414
1.0786	0.6335	9.7214
0.9416	0.6024	9.6789
1.0457	0.6616	9.5449
0.9368	0.6999	9.6209
0.8919	0.7346	9.6640
0.8961	0.7113	9.5898
0.9476	0.5378	9.5479
0.9894	0.6389	9.6323
0.9499	0.6574	9.5066
0.8722	0.6018	9.5611
0.8028	0.6652	9.5425
0.7854	0.7729	9.5844
0.8913	0.6652	9.6568
0.8722	0.7232	9.6394
1.0624	0.5850	9.4289
1.1868	0.5773	9.6149
0.9410	0.6562	9.5294
0.9416	0.6580	9.5838
0.8614	0.6831	9.6604
0.9194	0.7208	9.5288
0.8895	0.6628	9.5318
0.9487	0.6443	9.7998
0.9858	0.6293	9.4534
0.9619	0.6126	9.5928
0.9446	0.6490	9.6179
0.8967	0.7454	9.5318
0.8680	0.7376	9.5623
0.8255	0.7220	9.6155
0.9697	0.5791	9.5575
0.9571	0.6592	9.6424
0.9972	0.5713	9.5455
1.0301	0.6700	9.5359
0.9350	0.6580	9.6281
0.8357	0.7448	9.6364
0.8566	0.7603	9.5497
0.9595	0.6652	9.5682
0.8877	0.6329	9.5844
1.0223	0.6263	9.5497
0.9368	0.6682	9.6664
0.9332	0.6485	9.5850
0.9595	0.6909	9.5377
0.9505	0.6778	9.6783
0.9487	0.6640	9.5371
0.9900	0.6443	9.6221
0.9141	0.6490	9.6472
0.9368	0.6676	9.5976
0.9236	0.7513	9.5120
0.8668	0.7537	9.5551
0.9392	0.6299	9.5521
0.9637	0.7101	9.6604
0.9577	0.7125	9.6023
0.9876	0.5402	9.5754
0.9888	0.6670	9.6406
0.8626	0.6688	9.5772
0.9039	0.4774	9.6023
0.9087	0.6383	9.6287
1.0110	0.6592	9.4983
0.9398	0.7394	9.5102
0.8997	0.5809	9.6777
0.9846	0.6383	9.5982
0.9051	0.7214	9.6119
0.9344	0.6156	9.6562
0.9828	0.6341	9.3547
0.9422	0.6520	9.6323
0.9320	0.6802	9.5210
0.8961	0.7262	9.4552
0.9236	0.6329	9.6819
0.9158	0.6556	9.5742
0.9152	0.7143	9.5694
0.8052	0.6748	9.5599
0.8363	0.6652	9.4594
1.0271	0.5868	9.5593
0.8943	0.6335	9.6215
0.9458	0.6401	9.4839
0.7824	0.6616	9.5964
0.8010	0.7328	9.5479
0.9416	0.6915	9.4265
0.9589	0.7579	9.7166
0.9775	0.6150	9.6041
0.9948	0.6987	9.5180
0.9224	0.6754	9.5844
0.8853	0.6215	9.4325
0.9709	0.6383	9.5599
0.9147	0.5892	9.5952
0.9260	0.6885	9.5276
0.9284	0.6090	9.6520
0.9523	0.6604	9.7094
1.0684	0.7878	9.5180
0.9260	0.7029	9.6532
0.9188	0.6490	9.6251
0.9338	0.7178	9.4390
0.9129	0.6975	9.5958
0.8052	0.6724	9.5443
0.8967	0.6311	9.4486
0.9565	0.5593	9.6556
0.9230	0.6263	9.5437
0.9918	0.7113	9.6335
0.9392	0.6622	9.6215
0.9960	0.6317	9.5120
0.9643	0.7507	9.5491
1.0038	0.6449	9.5934
0.9218	0.5850	9.6131
0.9135	0.7836	9.5599
0.8369	0.6646	9.5078
0.8506	0.6455	9.6053
0.9458	0.6760	9.6364
0.9248	0.5946	9.6861
0.9727	0.7214	9.5629
0.9637	0.7567	9.5503
0.9117	0.6837	9.6358
0.9452	0.7119	9.6006
0.9595	0.6796	9.5886
0.9021	0.6054	9.7286
0.9906	0.7519	9.5629
0.8806	0.6496	9.6077
0.8590	0.6102	9.6006
0.8889	0.6520	9.5150
0.9751	0.6383	9.5431
0.9135	0.6604	9.5994
1.0373	0.6688	9.4588
0.9398	0.7310	9.6670
0.9470	0.6622	9.6215
0.9547	0.6915	9.5204
0.9428	0.6652	9.6460
0.9326	0.6114	9.6556
0.9230	0.6263	9.6293
0.8829	0.6461	9.6161
0.8638	0.7388	9.5706
0.8782	0.7214	9.5120
0.9613	0.6401	9.5904
0.8871	0.6814	9.5814
0.9320	0.7352	9.5312
0.8704	0.6861	9.6029
0.9188	0.6820	9.5204
0.9745	0.6903	9.4809
0.8716	0.6227	9.6502
0.9290	0.6586	9.5108
0.9464	0.6694	9.5419
0.9362	0.6389	9.5982
0.9523	0.6909	9.5808
0.9464	0.6532	9.5455
0.9458	0.6419	9.5611
0.9535	0.7083	9.5228
0.9081	0.7059	9.5300
0.9141	0.6461	9.5862
0.9888	0.6688	9.5778
0.8997	0.6867	9.6394
0.9009	0.6299	9.6131
0.9811	0.6473	9.5294
0.8877	0.6556	9.6281
0.9422	0.6269	9.6382
0.9063	0.7436	9.6179
0.9051	0.6365	9.6053
0.9583	0.6873	9.5653
0.9811	0.6712	9.5473
0.9051	0.6700	9.6101
0.9164	0.6490	9.5880
1.0050	0.6772	9.5455
0.8823	0.6401	9.5826
0.9482	0.6825	9.6502
0.9033	0.6610	9.6364
0.9565	0.6275	9.6293
0.9170	0.7011	9.5587
0.9763	0.6760	9.5808
0.9428	0.6544	9.5808
0.9009	0.6467	9.5401
0.8949	0.6945	9.5569
0.9158	0.6981	9.6017
0.9326	0.6419	9.5772
0.9009	0.6592	9.5569
0.9344	0.6814	9.5754
0.9111	0.7286	9.5742
0.9290	0.7005	9.5671
0.9410	0.6604	9.5772
0.9511	0.6526	9.5862
0.9697	0.7029	9.5862
0.9141	0.6520	9.6137
0.9529	0.6371	9.5659
0.9505	0.7155	9.5461
0.9158	0.6646	9.4911
0.8818	0.6580	9.5832
0.9661	0.6395	9.6197
0.8459	0.6706	9.5790
0.9338	0.6341	9.5677
0.9673	0.6879	9.6149
0.8973	0.6245	9.5748
0.9284	0.7226	9.6311
0.9033	0.6580	9.6574
0.9882	0.6066	9.5306
0.8608	0.7035	9.5880
0.9709	0.6161	9.6167
0.9422	0.6849	9.5437
0.9302	0.6538	9.5515
0.9170	0.6897	9.5976
0.9194	0.6347	9.5682
0.9619	0.6885	9.6388
0.8626	0.6514	9.6580
0.9882	0.6185	9.5712
0.9033	0.6987	9.6382
0.8829	0.6574	9.5808
0.9852	0.7119	9.4606
0.8997	0.7137	9.5910
0.9045	0.6161	9.5832
0.9511	0.6580	9.6041
0.9697	0.6556	9.5431
0.9799	0.6562	9.6071
0.9476	0.6664	9.5946
0.9332	0.6682	9.5246
0.9715	0.6628	9.5748
0.8740	0.7107	9.6376
1.0504	0.6485	9.5581
0.9057	0.6712	9.5808
0.9242	0.6879	9.6233
0.8943	0.6574	9.5611
0.8572	0.7107	9.6197
0.9649	0.6443	9.6035
0.9045	0.6802	9.5461
0.9721	0.6766	9.5880
0.9272	0.6843	9.6681
0.9482	0.6347	9.5832
0.9248	0.6999	9.5970
0.9278	0.6377	9.6035
0.9416	0.6580	9.5605
0.8955	0.6490	9.5551
0.9218	0.6790	9.5419
0.9380	0.6604	9.5485
0.9553	0.6736	9.6143
0.9188	0.6592	9.5347
0.9930	0.7507	9.5940
0.8650	0.6156	9.5611
0.9763	0.7495	9.6000
0.8297	0.4768	9.6789
1.0104	0.6957	9.5353
0.8142	0.6245	9.6484
0.9990	0.6335	9.5527
0.8249	0.7310	9.6191
0.9212	0.6341	9.5156
0.8979	0.7238	9.5820
0.9075	0.6431	9.5964
1.0163	0.6550	9.5258
0.8369	0.7029	9.6538
1.0385	0.6508	9.5419
0.7938	0.6843	9.5922
1.0750	0.6682	9.5575
0.8207	0.6897	9.6317
1.0552	0.6317	9.5204
0.7938	0.6837	9.6215
0.9242	0.6496	9.5395
1.0349	0.6802	9.5401
0.8165	0.5880	9.6825
1.0630	0.7238	9.5001
0.7789	0.6479	9.6687
1.0050	0.6814	9.5096
0.9093	0.6760	9.6640
0.8315	0.6443	9.6065
0.9577	0.7101	9.5066
0.8423	0.6742	9.6287
0.9852	0.6837	9.5533
0.8806	0.6951	9.5491
0.8871	0.6024	9.6293
1.0008	0.6987	9.5485
0.8895	0.6060	9.6699
0.9834	0.5892	9.6233
0.9781	0.7041	9.5659
0.8399	0.6413	9.6179
1.0851	0.7196	9.5024
0.8297	0.6227	9.6945
0.9822	0.6341	9.4911
0.9655	0.7160	9.5772
0.8130	0.6455	9.6556
1.0397	0.6915	9.4845
0.8429	0.6090	9.7064
0.9487	0.6514	9.5455
0.9135	0.7119	9.5365
0.9487	0.6437	9.6628
0.8782	0.6694	9.5641
0.9697	0.6407	9.5264
0.9039	0.6909	9.6496
0.9027	0.6945	9.5952
0.9583	0.6419	9.6023
0.9284	0.6718	9.4959
0.9308	0.6538	9.6077
0.9715	0.6987	9.5688
0.9308	0.6718	9.6161
0.9105	0.6389	9.5563
0.9852	0.6951	9.5359
0.8931	0.6694	9.6209
0.9954	0.6502	9.5467
0.9308	0.7035	9.5647
0.9577	0.6485	9.5856
0.9637	0.6562	9.6167
0.8746	0.6718	9.6364
0.9559	0.6461	9.5318
0.9147	0.6784	9.6293
0.9069	0.7113	9.5665
0.9200	0.6861	9.5665
0.8991	0.6574	9.6137
0.9428	0.6951	9.5826
0.9194	0.6502	9.5904
0.9296	0.6461	9.5790
0.9284	0.6652	9.5814
0.9655	0.6694	9.5635
0.9063	0.6724	9.5688
0.9661	0.6443	9.6101
0.9398	0.6544	9.5904
0.9595	0.6598	9.5796
0.9631	0.6455	9.6424
0.9069	0.6778	9.5730
0.9458	0.6831	9.5324
0.9314	0.6586	9.6023
0.9374	0.6676	9.6257
0.9135	0.6814	9.5659
0.9290	0.6544	9.5700
0.9093	0.6598	9.6113
0.9320	0.7083	9.5545
0.8991	0.6514	9.6041
0.9224	0.6455	9.5964
0.9332	0.6598	9.5605
0.9470	0.6909	9.6083
0.9152	0.6616	9.6155
0.9326	0.6305	9.5563
0.9194	0.6915	9.6029
0.9571	0.7286	9.6035
1.0564	0.6233	9.5754
0.9458	0.6461	9.5748
0.9302	0.6718	9.6041
0.9332	0.6790	9.5886
0.9051	0.6568	9.6083
1.0612	0.6485	9.5575
0.9751	0.6843	9.5575
0.8973	0.6550	9.6598
0.9733	0.6485	9.5318
0.9236	0.6909	9.5778
0.9093	0.6431	9.6077
0.9571	0.6706	9.5814
0.8818	0.6586	9.5880
0.9990	0.6897	9.5294
0.8758	0.6658	9.6065
0.9727	0.6682	9.5754
0.8788	0.6933	9.5557
0.9619	0.6640	9.5665
0.9224	0.6808	9.6179
0.9404	0.6203	9.5802
0.9212	0.6796	9.5982
0.9081	0.6682	9.6006
0.9434	0.6586	9.5617
0.7693	0.6556	9.6143
0.9649	0.6526	9.5730
0.9284	0.6712	9.5677
0.8979	0.6724	9.5790
0.9464	0.6646	9.5850
0.8907	0.6915	9.5886
0.9290	0.6305	9.5910
0.9003	0.7196	9.5820
0.8919	0.6508	9.5629
0.9828	0.6981	9.5389
0.8584	0.6066	9.6634
0.9811	0.6736	9.5276
0.8776	0.6993	9.6017
0.9410	0.6329	9.5988
0.9332	0.6831	9.5515
0.9464	0.6371	9.5868
0.9697	0.6861	9.5964
0.8943	0.6616	9.5772
0.9936	0.6305	9.5826
0.8829	0.6706	9.6275
0.9607	0.6706	9.5347
0.9362	0.6993	9.6107
0.9188	0.6209	9.6077
0.9559	0.6796	9.5407
0.9290	0.6622	9.6101
0.9063	0.6634	9.5700
0.9386	0.6784	9.5665
0.9111	0.6604	9.6197
0.8913	0.6927	9.5353
0.9499	0.6467	9.5629
0.9230	0.6772	9.6227
0.9236	0.6796	9.5449
0.9386	0.6467	9.6101
0.8919	0.6909	9.5928
0.9482	0.6820	9.5443
0.9212	0.6652	9.6197
0.9320	0.6419	9.5802
0.9487	0.6658	9.5718
0.9356	0.6897	9.6299
0.9338	0.6443	9.5796
0.9332	0.6676	9.5862
0.9422	0.6706	9.5982
0.9200	0.6802	9.6023
0.9440	0.6568	9.5940
0.9440	0.6490	9.5862
0.9141	0.6772	9.5964
0.9332	0.6754	9.5736
0.9218	0.6610	9.5988
0.9356	0.6664	9.5850
0.9344	0.6814	9.5784
0.9087	0.6646	9.5940
0.9440	0.6628	9.5868
0.9278	0.6682	9.5892
0.9135	0.6712	9.5772
0.9356	0.6562	9.5892
0.9194	0.6520	9.6107
0.9428	0.6843	9.5724
0.9374	0.6736	9.5910
0.9422	0.6520	9.6041
0.9380	0.6694	9.5653
0.9422	0.6706	9.5856
0.9278	0.6766	9.5958
0.9380	0.6461	9.5796
0.9302	0.6646	9.5826
0.9302	0.6802	9.5916
0.9380	0.6574	9.5946
0.9320	0.6628	9.5760
0.9248	0.6634	9.5922
0.9200	0.6891	9.5898
0.9212	0.6843	9.5892
0.9230	0.6592	9.6077
0.9236	0.6694	9.5814
0.9200	0.6820	9.5724
0.9242	0.6652	9.6071
0.9254	0.6622	9.5922
0.9362	0.6682	9.5653
0.9362	0.6592	9.5880
0.9296	0.6658	9.5856
0.9350	0.6664	9.5688
0.9266	0.6568	9.6006
0.9260	0.6700	9.5934
0.9278	0.6640	9.5784
0.9374	0.6628	9.5838
0.9308	0.6592	9.5910
0.9278	0.6598	9.5796
0.9147	0.6664	9.5820
0.9170	0.6712	9.5880
0.9230	0.6814	9.5850
0.9200	0.6754	9.5814
0.9266	0.6700	9.5736
0.9260	0.6814	9.5814
0.9266	0.6736	9.5880
0.9326	0.6622	9.5976
0.9410	0.6658	9.5940
0.9392	0.6718	9.5868
0.9446	0.6688	9.5922
0.9440	0.6622	9.5970
0.9416	0.6640	9.5856
0.9422	0.6694	9.5952
0.9374	0.6700	9.5946
0.9374	0.6634	9.5832
0.9350	0.6610	9.5844
0.9296	0.6688	9.5886
0.9206	0.6778	9.5796
0.9176	0.6688	9.5838
0.9141	0.6646	9.5940
0.9099	0.6718	9.5832
0.9135	0.6754	9.5868
0.9069	0.6718	9.5970
0.9075	0.6754	9.5826
0.9063	0.6694	9.5904
0.9170	0.6712	9.5952
0.9218	0.6778	9.5814
0.9290	0.6628	9.5790
0.9314	0.6628	9.5820
0.9332	0.6700	9.5766
0.9386	0.6622	9.5898
0.9428	0.6580	9.5838
0.9529	0.6622	9.5736
0.9464	0.6616	9.5796
0.9458	0.6646	9.5886
0.9476	0.6670	9.5796
0.9326	0.6658	9.5838
0.9284	0.6688	9.5862
0.9242	0.6742	9.5802
0.9182	0.6676	9.5904
0.9164	0.6670	9.5916
0.9129	0.6748	9.5880
0.9093	0.6808	9.5868
0.9087	0.6772	9.5922
0.9176	0.6694	9.5976
0.9170	0.6682	9.5952
0.9230	0.6676	9.5940
0.9326	0.6706	9.5922
0.9356	0.6676	9.5862
0.9386	0.6556	9.5862
0.9416	0.6610	9.5808
0.9482	0.6676	9.5748
0.9470	0.6628	9.5820
0.9416	0.6580	9.5850
0.9422	0.6664	9.5838
0.9428	0.6700	9.5910
0.9422	0.6634	9.5964
0.9356	0.6700	9.5844
0.9284	0.6688	9.5958
0.9182	0.6700	9.6012
0.9176	0.6724	9.5934
0.9194	0.6664	9.5952
0.9158	0.6670	9.5952
0.9212	0.6760	9.5802
0.9182	0.6688	9.5820
0.9254	0.6616	9.5922
0.9260	0.6664	9.5802
0.9290	0.6658	9.5832
0.9332	0.6628	9.5916
0.9398	0.6622	9.5844
0.9440	0.6634	9.5808
0.9446	0.6634	9.5820
0.9446	0.6676	9.5826
0.9404	0.6700	9.5826
0.9350	0.6700	9.5826
0.9398	0.6736	9.5820
0.9326	0.6742	9.5826
0.9362	0.6670	9.5892
0.9272	0.6646	9.5868
0.9182	0.6718	9.5826
0.9182	0.6724	9.5832
0.9141	0.6760	9.5838
0.9147	0.6772	9.5826
0.9182	0.6760	9.5784
0.9230	0.6730	9.5784
0.9158	0.6754	9.5808
0.9200	0.6682	9.5796
0.9344	0.6658	9.5886
0.9362	0.6676	9.5844
0.9458	0.6622	9.5850
0.9428	0.6634	9.5868
0.9428	0.6682	9.5784
0.9392	0.6694	9.5778
0.9362	0.6640	9.5814
0.9404	0.6622	9.5814
0.9380	0.6694	9.5790
0.9272	0.6664	9.5946
0.9260	0.6700	9.5886
0.9206	0.6622	9.5814
0.9248	0.6610	9.5892
0.9212	0.6688	9.5838
0.9182	0.6682	9.5832
0.9164	0.6676	9.5892
0.9176	0.6706	9.5886
0.9224	0.6718	9.5916
0.9242	0.6724	9.5904
0.9206	0.6718	9.5874
0.9242	0.6682	9.5934
0.9326	0.6664	9.5922
0.9392	0.6682	9.5934
0.9416	0.6634	9.5946
0.9458	0.6622	9.5886
0.9446	0.6586	9.5862
0.9398	0.6634	9.5886
0.9380	0.6610	9.5922
0.9344	0.6634	9.5946
0.9278	0.6694	9.5898
0.9266	0.6634	9.5952
0.9224	0.6718	9.5862
0.9278	0.6676	9.5820
0.9242	0.6688	9.5856
0.9170	0.6736	9.5826
0.9176	0.6754	9.5862
0.9188	0.6718	9.5916
0.9170	0.6706	9.5886
0.9230	0.6700	9.5880
0.9224	0.6640	9.5916
0.9290	0.6670	9.5850
0.9398	0.6640	9.5886
0.9422	0.6574	9.5910
0.9380	0.6586	9.5796
0.9386	0.6652	9.5772
0.9404	0.6658	9.5712
0.9326	0.6682	9.5742
0.9344	0.6712	9.5760
0.9290	0.6742	9.5838
0.9248	0.6706	9.5832
0.9242	0.6694	9.5772
0.9236	0.6706	9.5874
0.9242	0.6730	9.5904
0.9236	0.6730	9.5802
0.9176	0.6700	9.5826
0.9248	0.6676	9.5856
0.9260	0.6706	9.5868
0.9236	0.6706	9.5880
0.9278	0.6646	9.5886
0.9314	0.6646	9.5844
0.9290	0.6664	9.5886
0.9308	0.6610	9.5910
0.9332	0.6652	9.5892
0.9392	0.6688	9.5850
0.9416	0.6628	9.5904
0.9482	0.6664	9.5850
0.9422	0.6652	9.5934
0.9368	0.6604	9.5922
0.9320	0.6688	9.5826
0.9350	0.6718	9.5802
0.9320	0.6694	9.5856
0.9224	0.6718	9.5868
0.9224	0.6694	9.5934
0.9206	0.6682	9.5814
0.9188	0.6706	9.5856
0.9212	0.6742	9.5850
0.9194	0.6682	9.5862
0.9260	0.6670	9.5838
0.9272	0.6676	9.5850
0.9248	0.6682	9.5862
0.9284	0.6670	9.5820
0.9320	0.6694	9.5808
0.9392	0.6670	9.5892
0.9410	0.6658	9.5886
0.9398	0.6664	9.5982
0.9338	0.6616	9.5940
0.9302	0.6652	9.5874
0.9266	0.6688	9.5832
0.9326	0.6646	9.5874
0.9248	0.6640	9.5922
0.9224	0.6730	9.5898
0.9206	0.6676	9.5838
0.9254	0.6700	9.5856
0.9278	0.6700	9.5910
0.9284	0.6670	9.5970
0.9290	0.6694	9.5886
0.9338	0.6676	9.5814
0.9332	0.6688	9.5874
0.9398	0.6682	9.5910
0.9374	0.6664	9.5802
0.9410	0.6610	9.5856
0.9338	0.6616	9.5814
0.9338	0.6610	9.5778
0.9350	0.6658	9.5820
0.9332	0.6652	9.5868
0.9362	0.6682	9.5886
0.9338	0.6706	9.5856
0.9374	0.6724	9.5862
0.9350	0.6706	9.5844
0.9356	0.6676	9.5934
0.9338	0.6628	9.5862
0.9320	0.6670	9.5814
0.9326	0.6628	9.5868
0.9314	0.6688	9.5862
0.9368	0.6742	9.5958
0.9338	0.6730	9.5922
0.9230	0.6736	9.5958
1.0702	0.6742	9.5958
0.9272	0.6724	9.5886
0.9284	0.6658	9.5958
0.9332	0.6670	9.5952
0.9302	0.6664	9.5892
0.9344	0.6652	9.5946
0.9338	0.6640	9.5886
0.9332	0.6616	9.5808
0.9380	0.6682	9.5856
0.9386	0.6712	9.5916
0.9326	0.6682	9.5946
0.9344	0.6658	9.5982
0.9284	0.6694	9.5976
0.9224	0.6730	9.5934
0.9206	0.6724	9.5916
0.9200	0.6664	9.5934
0.9230	0.6664	9.5880
0.9230	0.6676	9.5832
0.9260	0.6616	9.5790
0.9272	0.6700	9.5850
0.9332	0.6634	9.5886
0.9338	0.6676	9.5814
0.9302	0.6682	9.5796
0.9320	0.6670	9.5856
0.9284	0.6688	9.5856
0.9272	0.6682	9.5856
0.9344	0.6652	9.5886
0.9314	0.6658	9.5868
0.9314	0.6670	9.5886
0.9284	0.6658	9.5868
0.9284	0.6694	9.5838
0.9302	0.6688	9.5850
0.9314	0.6706	9.5880
0.9290	0.6706	9.5838
0.9254	0.6718	9.5826
0.9248	0.6706	9.5856
0.9224	0.6724	9.5844
0.9260	0.6682	9.5856
0.9314	0.6664	9.5898
0.9290	0.6664	9.5868
0.9332	0.6628	9.5928
0.9332	0.6652	9.5892
0.9356	0.6670	9.5850
0.9332	0.6670	9.5802
0.9314	0.6646	9.5874
0.9386	0.6610	9.5832
0.9434	0.6670	9.5832
0.9398	0.6658	9.5838
0.9344	0.6658	9.5814
0.9326	0.6664	9.5820
0.9326	0.6682	9.5898
0.9236	0.6652	9.5814
0.9182	0.6664	9.5820
0.9224	0.6658	9.5826
0.9182	0.6664	9.5802
0.9224	0.6658	9.5814
0.9332	0.6718	9.5730
0.9272	0.6718	9.5862
0.9302	0.6712	9.5808
0.9254	0.6682	9.5838
0.9338	0.6694	9.5910
0.9332	0.6676	9.5922
0.9320	0.6694	9.5892
0.9320	0.6664	9.5898
0.9380	0.6682	9.5850
0.9422	0.6688	9.5844
0.9386	0.6676	9.5856
0.9320	0.6676	9.5892
0.9248	0.6730	9.5862
0.9266	0.6670	9.5850
0.9278	0.6706	9.5820
0.9338	0.6706	9.5862
0.9296	0.6688	9.5820
0.9284	0.6634	9.5862
0.9266	0.6700	9.5820
0.9266	0.6670	9.5832
0.9308	0.6628	9.5892
0.9320	0.6706	9.5784
0.9320	0.6712	9.5862
0.9356	0.6754	9.5838
0.9314	0.6742	9.5844
0.9392	0.6712	9.5874
0.9356	0.6658	9.5838
0.9368	0.6652	9.5856
0.9290	0.6664	9.5796
0.9302	0.6640	9.5832
0.9308	0.6682	9.5862
0.9272	0.6670	9.5814
0.9290	0.6634	9.5832
0.9332	0.6658	9.5820
0.9278	0.6670	9.5790
0.9188	0.6670	9.5838
0.9224	0.6718	9.5862
0.9266	0.6718	9.5838
0.9320	0.6682	9.5898
0.9356	0.6676	9.5928
0.9284	0.6670	9.5910
0.9260	0.6658	9.5880
0.9242	0.6682	9.5844
0.9302	0.6676	9.5856
0.9338	0.6664	9.5856
0.9338	0.6682	9.5820
0.9272	0.6658	9.5820
0.9248	0.6688	9.5844
0.9290	0.6670	9.5784
0.9308	0.6670	9.5862
0.9260	0.6676	9.5880
0.9320	0.6670	9.5814
0.9356	0.6712	9.5934
0.9362	0.6688	9.5976
0.9338	0.6640	9.5838
0.9338	0.6682	9.5862
0.9326	0.6670	9.5856
0.9308	0.6688	9.5874
0.9344	0.6664	9.5910
0.9260	0.6700	9.5850
0.9254	0.6682	9.5844
0.9266	0.6718	9.5796
0.9278	0.6736	9.5826
0.9284	0.6736	9.5850
0.9284	0.6688	9.5868
0.9212	0.6700	9.5874
0.9272	0.6670	9.5850
0.9290	0.6634	9.5892
0.9308	0.6622	9.5916
0.9314	0.6658	9.5886
0.9356	0.6634	9.5886
0.9320	0.6646	9.5838
0.9338	0.6682	9.5832
0.9320	0.6688	9.5874
0.9278	0.6724	9.5868
0.9260	0.6706	9.5784
0.9260	0.6688	9.5856
0.9278	0.6712	9.5820
0.9224	0.6718	9.5844
0.9272	0.6706	9.5904
0.9278	0.6700	9.5784
0.9242	0.6724	9.5826
0.9254	0.6670	9.5772
0.9242	0.6670	9.5778
0.9284	0.6694	9.5850
0.9332	0.6676	9.5748
0.9254	0.6652	9.5808
0.9302	0.6664	9.5916
0.9332	0.6610	9.5922
0.9362	0.6646	9.5826
0.9350	0.6676	9.5838
0.9326	0.6682	9.5820
0.9254	0.6676	9.5820
0.9272	0.6658	9.5856
0.9260	0.6670	9.5904
0.9272	0.6658	9.5940
0.9296	0.6628	9.5886
0.9284	0.6652	9.5880
0.9344	0.6664	9.5886
0.9338	0.6670	9.5874
0.9308	0.6670	9.5838
0.9326	0.6676	9.5790
0.9296	0.6706	9.5820
0.9272	0.6670	9.5856
0.9344	0.6670	9.5820
0.9356	0.6652	9.5886
0.9362	0.6652	9.5886
0.9302	0.6640	9.5796
0.9296	0.6670	9.5826
0.9290	0.6688	9.5820
0.9296	0.6682	9.5880
0.9296	0.6688	9.5796
0.9242	0.6658	9.5850
0.9230	0.6688	9.5898
0.9248	0.6628	9.5874
0.9248	0.6658	9.5814
0.9260	0.6622	9.5736
0.9248	0.6640	9.5832
0.9326	0.6628	9.5814
0.9302	0.6652	9.5874
0.9320	0.6688	9.5934
0.9338	0.6628	9.5904
0.9344	0.6634	9.5904
0.9326	0.6670	9.5952
0.9290	0.6700	9.5886
0.9314	0.6676	9.5856
0.9332	0.6664	9.5778
0.9350	0.6676	9.5784
0.9344	0.6670	9.5826
0.9350	0.6676	9.5802
0.9320	0.6658	9.5808
0.9362	0.6694	9.5832
0.9356	0.6664	9.5856
0.9410	0.6622	9.5868
0.9356	0.6628	9.5916
0.9362	0.6676	9.5844
0.9314	0.6712	9.5760
0.9308	0.6700	9.5796
0.9332	0.6676	9.5886
0.9326	0.6658	9.5808
0.9314	0.6700	9.5772
0.9374	0.6706	9.5808
0.9314	0.6694	9.5826
0.9392	0.6688	9.5910
0.9380	0.6676	9.5880
0.9368	0.6670	9.5910
0.9338	0.6670	9.5892
0.9326	0.6712	9.5844
0.9290	0.6760	9.5856
0.9284	0.6706	9.5892
0.9266	0.6712	9.5898
0.9272	0.6718	9.5826
0.9248	0.6736	9.5814
0.9296	0.6700	9.5868
0.9290	0.6646	9.5940
0.9296	0.6670	9.5964
0.9314	0.6676	9.5928
0.9308	0.6646	9.5976
0.9350	0.6682	9.5898
0.9416	0.6676	9.5790
0.9338	0.6646	9.5826
0.9332	0.6646	9.5868
0.9362	0.6628	9.5838
0.9266	0.6622	9.5856
0.9326	0.6694	9.5898
0.9296	0.6676	9.5868
0.9320	0.6718	9.5874
0.9344	0.6712	9.5934

