accelx	accely	accelz
1.0098	0.7860	9.5677
1.0086	0.7842	9.5659
1.0098	0.7830	9.5682
1.0098	0.7824	9.5688
1.0080	0.7848	9.5671
1.0050	0.7854	9.5671
1.0074	0.7860	9.5641
1.0050	0.7866	9.5641
1.0044	0.7890	9.5647
1.0038	0.7878	9.5671
1.0056	0.7854	9.5647
1.0008	0.7836	9.5629
1.0032	0.7848	9.5623
1.0044	0.7878	9.5677
1.0038	0.7860	9.5671
1.0044	0.7866	9.5688
1.0038	0.7842	9.5641
1.0050	0.7842	9.5653
1.0056	0.7866	9.5682
1.0062	0.7842	9.5688
1.0062	0.7848	9.5718
1.0092	0.7830	9.5694
1.0098	0.7830	9.5688
1.0086	0.7830	9.5724
1.0116	0.7836	9.5730
1.0122	0.7836	9.5742
1.0151	0.7842	9.5742
1.0157	0.7854	9.5706
1.0122	0.7848	9.5688
1.0128	0.7836	9.5665
1.0098	0.7819	9.5694
1.0056	0.7842	9.5659
1.0056	0.7824	9.5671
1.0044	0.7836	9.5682
1.0074	0.7854	9.5700
1.0098	0.7842	9.5688
1.0098	0.7848	9.5671
1.0080	0.7842	9.5677
1.0098	0.7854	9.5677
1.0086	0.7836	9.5706
1.0062	0.7848	9.5712
1.0080	0.7848	9.5748
1.0074	0.7836	9.5736
1.0056	0.7866	9.5730
1.0080	0.7866	9.5730
1.0080	0.7872	9.5712
1.0026	0.7866	9.5694
1.0050	0.7860	9.5700
1.0080	0.7860	9.5700
1.0074	0.7872	9.5694
1.0068	0.7908	9.5712
1.0062	0.7878	9.5718
1.0080	0.7854	9.5718
1.0086	0.7848	9.5730
1.0080	0.7830	9.5742
1.0074	0.7824	9.5736
1.0104	0.7836	9.5730
1.0092	0.7854	9.5688
1.0110	0.7842	9.5694
1.0056	0.7842	9.5671
1.0068	0.7830	9.5665
1.0056	0.7842	9.5682
1.0038	0.7842	9.5647
1.0014	0.7866	9.5665
1.0032	0.7872	9.5659
1.0014	0.7860	9.5665
1.0050	0.7842	9.5671
1.0056	0.7860	9.5700
1.0032	0.7860	9.5700
1.0044	0.7854	9.5700
1.0068	0.7866	9.5700
1.0068	0.7872	9.5712
1.0074	0.7842	9.5712
1.0068	0.7830	9.5682
1.0074	0.7836	9.5688
1.0068	0.7836	9.5688
1.0068	0.7830	9.5700
1.0068	0.7836	9.5736
1.0074	0.7842	9.5688
1.0092	0.7848	9.5718
1.0116	0.7842	9.5682
1.0122	0.7830	9.5694
1.0110	0.7836	9.5682
1.0092	0.7830	9.5718
1.0092	0.7819	9.5718
1.0086	0.7819	9.5712
1.0074	0.7842	9.5718
1.0068	0.7854	9.5688
1.0074	0.7860	9.5653
1.0074	0.7866	9.5659
1.0086	0.7866	9.5629
1.0068	0.7872	9.5647
1.0062	0.7866	9.5653
1.0080	0.7848	9.5665
1.0104	0.7842	9.5682
1.0074	0.7860	9.5641
1.0032	0.7842	9.5635
1.0038	0.7848	9.5635
1.0014	0.7854	9.5659
1.0038	0.7866	9.5653
1.0062	0.7890	9.5653
1.0044	0.7860	9.5671
1.0050	0.7884	9.5671
1.0050	0.7878	9.5665
1.0080	0.7878	9.5647
1.0044	0.7854	9.5653
1.0044	0.7848	9.5659
1.0008	0.7860	9.5682
1.0020	0.7866	9.5665
1.0032	0.7872	9.5665
1.0038	0.7854	9.5682
1.0044	0.7854	9.5724
1.0050	0.7842	9.5706
1.0044	0.7848	9.5700
1.0074	0.7860	9.5688
1.0086	0.7884	9.5700
1.0092	0.7866	9.5724
1.0050	0.7866	9.5677
1.0092	0.7848	9.5694
1.0074	0.7860	9.5718
1.0086	0.7842	9.5718
1.0080	0.7842	9.5712
1.0086	0.7866	9.5712
1.0098	0.7896	9.5688
1.0074	0.7884	9.5694
1.0056	0.7872	9.5688
1.0098	0.7866	9.5700
1.0074	0.7860	9.5659
1.0056	0.7842	9.5641
1.0056	0.7854	9.5629
1.0074	0.7848	9.5635
1.0104	0.7872	9.5677
1.0128	0.7866	9.5617
1.0146	0.7866	9.5641
1.0116	0.7878	9.5611
1.0074	0.7896	9.5647
1.0068	0.7872	9.5677
1.0104	0.7896	9.5671
1.0086	0.7872	9.5671
1.0074	0.7872	9.5647
1.0092	0.7884	9.5659
1.0104	0.7860	9.5647
1.0074	0.7866	9.5682
1.0086	0.7860	9.5682
1.0098	0.7854	9.5682
1.0092	0.7824	9.5688
1.0110	0.7819	9.5682
1.0128	0.7848	9.5659
1.0104	0.7836	9.5665
1.0056	0.7836	9.5653
1.0038	0.7854	9.5647
1.0080	0.7878	9.5665
1.0104	0.7896	9.5682
1.0068	0.7902	9.5694
1.0068	0.7890	9.5665
1.0056	0.7890	9.5688
1.0062	0.7872	9.5724
1.0068	0.7890	9.5665
1.0050	0.7896	9.5688
1.0068	0.7914	9.5700
1.0098	0.7884	9.5688
1.0104	0.7878	9.5706
1.0134	0.7896	9.5724
1.0098	0.7902	9.5706
1.0068	0.7884	9.5671
1.0080	0.7884	9.5671
1.0068	0.7878	9.5688
1.0056	0.7896	9.5671
1.0056	0.7878	9.5688
1.0068	0.7872	9.5706
1.0092	0.7860	9.5712
1.0098	0.7854	9.5694
1.0080	0.7872	9.5700
1.0086	0.7884	9.5671
1.0080	0.7884	9.5712
1.0104	0.7878	9.5700
1.0098	0.7890	9.5706
1.0098	0.7884	9.5677
1.0086	0.7866	9.5677
1.0098	0.7860	9.5706
1.0104	0.7854	9.5742
1.0098	0.7860	9.5736
1.0122	0.7860	9.5712
1.0068	0.7854	9.5694
1.0050	0.7854	9.5706
1.0080	0.7836	9.5688
1.0062	0.7848	9.5677
1.0098	0.7824	9.5682
1.0068	0.7824	9.5665
1.0062	0.7842	9.5647
1.0080	0.7848	9.5647
1.0032	0.7866	9.5712
1.0074	0.7872	9.5712
1.0092	0.7854	9.5700
1.0080	0.7866	9.5682
1.0110	0.7860	9.5730
1.0086	0.7854	9.5718
1.0056	0.7842	9.5724
1.0062	0.7842	9.5659
1.0056	0.7836	9.5665
1.0062	0.7860	9.5682
1.0062	0.7854	9.5694
1.0062	0.7836	9.5730
1.0038	0.7860	9.5742
1.0056	0.7842	9.5682
1.0062	0.7848	9.5671
1.0080	0.7866	9.5671
1.0086	0.7866	9.5694
1.0092	0.7848	9.5718
1.0086	0.7854	9.5694
1.0134	0.7848	9.5682
1.0104	0.7842	9.5700
1.0092	0.7842	9.5712
1.0086	0.7830	9.5700
1.0074	0.7854	9.5647
1.0104	0.7854	9.5641
1.0104	0.7830	9.5629
1.0098	0.7842	9.5653
1.0080	0.7824	9.5742
1.0104	0.7854	9.5718
1.0098	0.7836	9.5706
1.0086	0.7866	9.5688
1.0080	0.7860	9.5706
1.0086	0.7872	9.5718
1.0098	0.7878	9.5706
1.0086	0.7878	9.5694
1.0104	0.7872	9.5682
1.0086	0.7848	9.5653
1.0062	0.7854	9.5659
1.0044	0.7872	9.5629
1.0044	0.7866	9.5671
1.0044	0.7872	9.5688
1.0062	0.7878	9.5682
1.0050	0.7896	9.5688
1.0062	0.7902	9.5700
1.0086	0.7896	9.5700
1.0068	0.7884	9.5718
1.0080	0.7866	9.5682
1.0062	0.7866	9.5706
1.0092	0.7848	9.5724
1.0092	0.7836	9.5730
1.0068	0.7848	9.5694
1.0074	0.7842	9.5700
1.0080	0.7830	9.5653
1.0086	0.7824	9.5647
1.0122	0.7854	9.5712
1.0122	0.7836	9.5718
1.0104	0.7842	9.5671
1.0080	0.7854	9.5694
1.0092	0.7836	9.5706
1.0110	0.7848	9.5706
1.0074	0.7842	9.5724
1.0050	0.7842	9.5665
1.0068	0.7848	9.5682
1.0092	0.7866	9.5682
1.0098	0.7884	9.5694
1.0050	0.7872	9.5712
1.0062	0.7884	9.5671
1.0068	0.7884	9.5665
1.0074	0.7890	9.5700
1.0074	0.7908	9.5700
1.0044	0.7872	9.5671
1.0026	0.7878	9.5671
1.0014	0.7878	9.5671
1.0020	0.7914	9.5659
1.0038	0.7908	9.5671
1.0008	0.7920	9.5682
1.0008	0.7914	9.5682
1.0026	0.7896	9.5647
1.0044	0.7878	9.5671
1.0050	0.7854	9.5665
1.0056	0.7848	9.5688
1.0062	0.7848	9.5665
1.0056	0.7842	9.5647
1.0062	0.7860	9.5671
1.0080	0.7836	9.5677
1.0086	0.7819	9.5653
1.0086	0.7842	9.5694
1.0086	0.7830	9.5677
1.0074	0.7830	9.5677
1.0038	0.7830	9.5730
1.0038	0.7824	9.5700
1.0020	0.7836	9.5712
1.0050	0.7848	9.5682
1.0038	0.7813	9.5677
1.0062	0.7819	9.5688
1.0062	0.7813	9.5677
1.0074	0.7813	9.5677
1.0074	0.7813	9.5688
1.0056	0.7830	9.5706
1.0038	0.7830	9.5712
1.0032	0.7854	9.5766
1.0062	0.7848	9.5760
1.0056	0.7824	9.5730
1.0062	0.7819	9.5712
1.0062	0.7824	9.5688
1.0026	0.7789	9.5659
1.0080	0.7807	9.5647
1.0086	0.7807	9.5659
1.0068	0.7807	9.5659
1.0062	0.7795	9.5611
1.0056	0.7813	9.5617
1.0050	0.7813	9.5623
1.0044	0.7783	9.5641
1.0056	0.7807	9.5659
1.0056	0.7819	9.5671
1.0062	0.7824	9.5712
1.0086	0.7848	9.5718
1.0056	0.7836	9.5724
1.0068	0.7848	9.5671
1.0056	0.7854	9.5706
1.0092	0.7860	9.5712
1.0080	0.7860	9.5712
1.0068	0.7842	9.5712
1.0080	0.7836	9.5712
1.0056	0.7807	9.5718
1.0038	0.7836	9.5700
1.0020	0.7830	9.5724
1.0050	0.7819	9.5706
1.0062	0.7830	9.5706
1.0074	0.7842	9.5706
1.0074	0.7830	9.5641
1.0086	0.7824	9.5635
1.0086	0.7842	9.5641
1.0056	0.7848	9.5665
1.0080	0.7860	9.5659
1.0074	0.7878	9.5671
1.0074	0.7860	9.5665
1.0080	0.7866	9.5671
1.0098	0.7842	9.5682
1.0068	0.7836	9.5694
1.0068	0.7830	9.5659
1.0056	0.7854	9.5611
1.0044	0.7860	9.5647
1.0062	0.7866	9.5688
1.0056	0.7866	9.5706
1.0032	0.7842	9.5688
1.0044	0.7866	9.5730
1.0062	0.7866	9.5748
1.0080	0.7842	9.5736
1.0056	0.7824	9.5724
1.0056	0.7836	9.5736
1.0044	0.7842	9.5742
1.0056	0.7830	9.5730
1.0068	0.7866	9.5742
1.0068	0.7854	9.5730
1.0080	0.7848	9.5730
1.0086	0.7848	9.5694
1.0074	0.7854	9.5724
1.0074	0.7848	9.5688
1.0062	0.7860	9.5700
1.0050	0.7842	9.5694
1.0044	0.7848	9.5694
1.0038	0.7848	9.5694
1.0068	0.7866	9.5671
1.0068	0.7884	9.5682
1.0086	0.7866	9.5647
1.0086	0.7842	9.5671
1.0092	0.7848	9.5688
1.0110	0.7836	9.5677
1.0104	0.7860	9.5718
1.0104	0.7866	9.5694
1.0122	0.7872	9.5688
1.0110	0.7860	9.5694
1.0104	0.7854	9.5694
1.0104	0.7842	9.5694
1.0080	0.7842	9.5694
1.0104	0.7878	9.5748
1.0080	0.7866	9.5718
1.0098	0.7854	9.5677
1.0068	0.7860	9.5623
1.0068	0.7842	9.5629
1.0074	0.7848	9.5694
1.0098	0.7836	9.5694
1.0074	0.7830	9.5700
1.0068	0.7842	9.5718
1.0074	0.7860	9.5730
1.0068	0.7830	9.5712
1.0038	0.7842	9.5706
1.0014	0.7854	9.5700
1.0050	0.7830	9.5688
1.0062	0.7819	9.5718
1.0062	0.7830	9.5688
1.0086	0.7854	9.5688
1.0086	0.7854	9.5665
1.0062	0.7842	9.5653
1.0056	0.7830	9.5694
1.0062	0.7819	9.5730
1.0074	0.7819	9.5688
1.0098	0.7842	9.5677
1.0062	0.7836	9.5682
1.0074	0.7842	9.5682
1.0062	0.7872	9.5671
1.0086	0.7830	9.5671
1.0086	0.7842	9.5677
1.0086	0.7842	9.5659
1.0050	0.7836	9.5677
1.0050	0.7824	9.5688
1.0050	0.7836	9.5671
1.0044	0.7842	9.5659
1.0044	0.7854	9.5682
1.0056	0.7842	9.5682
1.0032	0.7866	9.5712
1.0026	0.7866	9.5712
1.0020	0.7842	9.5718
1.0038	0.7860	9.5730
1.0002	0.7848	9.5688
1.0020	0.7854	9.5682
1.0044	0.7848	9.5700
1.0074	0.7854	9.5682
1.0068	0.7854	9.5700
1.0044	0.7836	9.5671
1.0050	0.7830	9.5653
1.0056	0.7854	9.5635
1.0056	0.7854	9.5623
1.0050	0.7860	9.5647
1.0032	0.7854	9.5653
1.0038	0.7854	9.5671
1.0062	0.7848	9.5665
1.0086	0.7872	9.5623
1.0056	0.7860	9.5605
1.0026	0.7854	9.5641
1.0044	0.7854	9.5671
1.0038	0.7860	9.5688
1.0050	0.7848	9.5688
1.0062	0.7872	9.5718
1.0068	0.7860	9.5700
1.0068	0.7866	9.5677
1.0044	0.7860	9.5665
1.0026	0.7866	9.5682
1.0056	0.7860	9.5677
1.0038	0.7842	9.5653
1.0062	0.7836	9.5688
1.0068	0.7842	9.5694
1.0062	0.7854	9.5718
1.0098	0.7854	9.5682
1.0074	0.7860	9.5677
1.0080	0.7878	9.5617
1.0104	0.7866	9.5635
1.0104	0.7842	9.5653
1.0098	0.7813	9.5617
1.0104	0.7819	9.5671
1.0116	0.7801	9.5694
1.0116	0.7801	9.5677
1.0092	0.7795	9.5665
1.0110	0.7795	9.5641
1.0086	0.7813	9.5677
1.0098	0.7824	9.5653
1.0140	0.7819	9.5659
1.0122	0.7824	9.5700
1.0128	0.7824	9.5647
1.0110	0.7824	9.5665
1.0134	0.7854	9.5635
1.0134	0.7854	9.5647
1.0110	0.7860	9.5641
1.0110	0.7842	9.5599
1.0074	0.7860	9.5629
1.0050	0.7836	9.5605
1.0020	0.7842	9.5641
1.0032	0.7842	9.5665
1.0068	0.7848	9.5700
1.0086	0.7860	9.5706
1.0074	0.7848	9.5706
1.0092	0.7854	9.5724
1.0104	0.7848	9.5712
1.0104	0.7836	9.5706
1.0068	0.7854	9.5724
1.0074	0.7884	9.5748
1.0092	0.7866	9.5706
1.0080	0.7854	9.5671
1.0080	0.7842	9.5677
1.0086	0.7836	9.5700
1.0080	0.7819	9.5688
1.0074	0.7801	9.5682
1.0056	0.7801	9.5677
1.0032	0.7819	9.5659
1.0038	0.7824	9.5647
1.0026	0.7819	9.5682
1.0044	0.7848	9.5718
1.0092	0.7836	9.5724
1.0080	0.7848	9.5688
1.0074	0.7860	9.5694
1.0056	0.7824	9.5677
1.0068	0.7836	9.5706
1.0068	0.7842	9.5706
1.0104	0.7836	9.5706
1.0110	0.7801	9.5706
1.0134	0.7795	9.5718
1.0110	0.7807	9.5742
1.0092	0.7813	9.5688
1.0044	0.7813	9.5653
1.0026	0.7824	9.5635
1.0044	0.7819	9.5665
1.0008	0.7813	9.5700
1.0056	0.7783	9.5671
1.0026	0.7795	9.5682
1.0050	0.7824	9.5665
1.0026	0.7830	9.5677
1.0038	0.7807	9.5706
1.0032	0.7819	9.5688
1.0026	0.7866	9.5659
1.0020	0.7842	9.5659
1.0038	0.7813	9.5671
1.0032	0.7824	9.5700
1.0050	0.7830	9.5718
1.0044	0.7830	9.5712
1.0068	0.7819	9.5653
1.0050	0.7824	9.5677
1.0038	0.7819	9.5647
1.0038	0.7836	9.5659
1.0062	0.7836	9.5665
1.0068	0.7836	9.5641
1.0050	0.7836	9.5665
1.0062	0.7824	9.5682
1.0074	0.7830	9.5706
1.0068	0.7824	9.5694
1.0068	0.7848	9.5694
1.0068	0.7854	9.5665
1.0038	0.7860	9.5677
1.0044	0.7854	9.5700
1.0068	0.7848	9.5682
1.0050	0.7842	9.5718
1.0050	0.7848	9.5742
1.0080	0.7848	9.5736
1.0056	0.7866	9.5754
1.0020	0.7830	9.5736
1.0032	0.7848	9.5700
1.0026	0.7860	9.5682
0.9996	0.7860	9.5682
1.0008	0.7848	9.5677
1.0020	0.7848	9.5694
1.0032	0.7860	9.5659
1.0020	0.7854	9.5671
1.0020	0.7860	9.5682
1.0014	0.7824	9.5671
1.0008	0.7819	9.5682
1.0008	0.7830	9.5694
0.9990	0.7836	9.5635
1.0032	0.7836	9.5635
1.0062	0.7872	9.5682
1.0092	0.7842	9.5671
1.0026	0.7830	9.5682
1.0014	0.7819	9.5688
1.0026	0.7813	9.5682
1.0044	0.7807	9.5712
1.0038	0.7801	9.5688
1.0062	0.7807	9.5665
1.0032	0.7836	9.5647
1.0038	0.7854	9.5647
1.0062	0.7866	9.5629
1.0068	0.7842	9.5682
1.0068	0.7836	9.5688
1.0032	0.7824	9.5653
1.0044	0.7848	9.5682
1.0038	0.7854	9.5682
1.0074	0.7866	9.5724
1.0092	0.7890	9.5706
1.0068	0.7854	9.5724
1.0062	0.7854	9.5730
1.0026	0.7842	9.5724
1.0044	0.7854	9.5694
1.0080	0.7854	9.5706
1.0068	0.7842	9.5671
1.0044	0.7842	9.5694
1.0026	0.7848	9.5677
1.0020	0.7848	9.5659
1.0056	0.7842	9.5647
1.0050	0.7848	9.5671
1.0068	0.7860	9.5659
1.0032	0.7866	9.5671
1.0014	0.7872	9.5653
1.0014	0.7878	9.5659
1.0014	0.7872	9.5659
1.0026	0.7860	9.5647
1.0062	0.7854	9.5677
1.0044	0.7848	9.5641
1.0026	0.7842	9.5665
1.0032	0.7830	9.5659
1.0056	0.7836	9.5659
1.0044	0.7824	9.5671
1.0056	0.7813	9.5671
1.0056	0.7807	9.5671
1.0056	0.7830	9.5706
1.0080	0.7819	9.5659
1.0098	0.7813	9.5682
1.0116	0.7801	9.5700
1.0098	0.7789	9.5688
1.0050	0.7807	9.5712
1.0062	0.7813	9.5748
1.0062	0.7819	9.5760
1.0062	0.7824	9.5760
1.0032	0.7848	9.5802
1.0026	0.7848	9.5754
1.0020	0.7824	9.5736
1.0020	0.7824	9.5706
1.0002	0.7830	9.5677
1.0020	0.7836	9.5700
1.0038	0.7854	9.5706
1.0056	0.7866	9.5671
1.0044	0.7866	9.5718
1.0020	0.7854	9.5694
1.0014	0.7848	9.5671
1.0068	0.7866	9.5665
1.0044	0.7860	9.5629
1.0068	0.7860	9.5635
1.0068	0.7836	9.5647
1.0068	0.7824	9.5617
1.0074	0.7842	9.5623
1.0074	0.7878	9.5623
1.0092	0.7860	9.5605
1.0050	0.7842	9.5593
1.0068	0.7801	9.5641
1.0050	0.7813	9.5647
1.0038	0.7848	9.5647
1.0044	0.7830	9.5641
1.0038	0.7836	9.5635
1.0044	0.7830	9.5647
1.0068	0.7819	9.5611
1.0080	0.7824	9.5611
1.0098	0.7824	9.5629
1.0116	0.7819	9.5635
1.0092	0.7830	9.5635
1.0086	0.7824	9.5629
1.0068	0.7830	9.5665
1.0038	0.7848	9.5688
1.0062	0.7854	9.5677
1.0056	0.7860	9.5694
1.0038	0.7848	9.5718
1.0038	0.7836	9.5688
1.0026	0.7836	9.5671
1.0050	0.7842	9.5742
1.0062	0.7848	9.5772
1.0032	0.7854	9.5778
1.0038	0.7872	9.5760
1.0020	0.7860	9.5700
1.0020	0.7860	9.5682
1.0020	0.7866	9.5677
1.0032	0.7848	9.5677
1.0026	0.7842	9.5665
1.0044	0.7830	9.5688
1.0068	0.7819	9.5694
1.0056	0.7801	9.5706
1.0092	0.7830	9.5736
1.0080	0.7854	9.5694
1.0074	0.7854	9.5694
1.0068	0.7854	9.5641
1.0086	0.7842	9.5629
1.0074	0.7848	9.5677
1.0074	0.7848	9.5682
1.0056	0.7824	9.5694
1.0050	0.7819	9.5742
1.0062	0.7813	9.5748
1.0068	0.7824	9.5778
1.0062	0.7836	9.5766
1.0056	0.7819	9.5766
1.0050	0.7813	9.5790
1.0056	0.7801	9.5778
1.0086	0.7813	9.5760
1.0068	0.7830	9.5730
1.0098	0.7824	9.5706
1.0086	0.7813	9.5694
1.0080	0.7824	9.5700
1.0068	0.7836	9.5712
1.0098	0.7842	9.5712
1.0098	0.7848	9.5706
1.0098	0.7860	9.5653
1.0068	0.7860	9.5647
1.0020	0.7878	9.5647
1.0026	0.7866	9.5682
1.0068	0.7842	9.5706
1.0062	0.7836	9.5724
1.0068	0.7836	9.5712
1.0050	0.7830	9.5718
1.0044	0.7824	9.5682
1.0056	0.7819	9.5688
1.0086	0.7830	9.5700
1.0074	0.7813	9.5694
1.0092	0.7824	9.5706
1.0062	0.7830	9.5682
1.0074	0.7836	9.5694
1.0086	0.7836	9.5694
1.0074	0.7836	9.5682
1.0038	0.7848	9.5694
1.0050	0.7836	9.5700
1.0050	0.7854	9.5700
1.0050	0.7848	9.5700
1.0062	0.7848	9.5760
1.0086	0.7836	9.5730
1.0086	0.7836	9.5724
1.0104	0.7854	9.5682
1.0068	0.7854	9.5653
1.0074	0.7842	9.5671
1.0074	0.7848	9.5653
1.0026	0.7842	9.5659
1.0032	0.7842	9.5623
0.9984	0.7854	9.5659
0.9984	0.7842	9.5653
1.0044	0.7830	9.5653
1.0056	0.7824	9.5682
1.0062	0.7807	9.5677
1.0032	0.7819	9.5659
1.0020	0.7813	9.5641
1.0038	0.7824	9.5653
1.0056	0.7813	9.5647
1.0050	0.7795	9.5700
1.0050	0.7789	9.5706
1.0050	0.7819	9.5718
1.0056	0.7807	9.5730
1.0026	0.7836	9.5724
1.0014	0.7824	9.5688
1.0050	0.7830	9.5688
1.0032	0.7836	9.5694
1.0020	0.7824	9.5688
1.0068	0.7819	9.5700
1.0080	0.7824	9.5712
1.0044	0.7842	9.5700
1.0032	0.7777	9.5635
1.0020	0.7854	9.5599
0.9924	0.7938	9.5850
0.9960	0.7926	9.5539
0.9906	0.7830	9.5766
1.0193	0.7699	9.6012
0.9487	0.7836	9.5473
1.0714	0.7956	9.5940
1.0241	0.7807	9.6155
1.0492	0.7896	9.5551
1.0116	0.7884	9.6981
1.0642	0.7819	9.5431
0.9966	0.8052	9.5880
1.0427	0.6987	9.6927
1.0002	0.8118	9.5844
0.9517	0.7501	9.5174
1.0373	0.7765	9.6813
0.9487	0.7854	9.5443
1.0516	0.7956	9.4839
1.0008	0.7101	9.6837
0.9942	0.7992	9.5192
1.0163	0.8076	9.5264
0.9123	0.7627	9.5007
1.0032	0.8106	9.5276
1.0026	0.6167	9.5264
1.0110	0.7795	9.5892
1.0283	0.7609	9.6089
1.0283	0.8231	9.5060
0.9840	0.7196	9.5443
1.0062	0.8124	9.5395
0.9918	0.8357	9.5138
1.0325	0.7208	9.5742
1.0259	0.7322	9.5425
0.9721	0.8243	9.5730
0.9960	0.7962	9.5736
1.0271	0.7950	9.6131
0.9930	0.7783	9.5790
0.9930	0.7789	9.5479
1.0074	0.7974	9.5958
0.9721	0.7902	9.5790
0.9846	0.7747	9.4965
1.0044	0.7789	9.5976
0.9410	0.7974	9.5581
1.0427	0.7651	9.4432
1.0032	0.7681	9.6149
0.9805	0.7926	9.5796
1.0445	0.8171	9.5593
1.0163	0.7938	9.6113
1.0283	0.7848	9.5593
1.0367	0.8052	9.5581
1.0486	0.7555	9.6191
1.0062	0.7442	9.5910
1.0157	0.7651	9.5072
0.9805	0.7878	9.5647
0.9888	0.7759	9.5557
0.9864	0.7992	9.4989
0.9805	0.7830	9.5850
0.9613	0.7842	9.6047
1.0122	0.8118	9.5814
1.0056	0.7501	9.6382
0.9822	0.9075	9.5437
1.0433	0.8207	9.5228
0.9685	0.7525	9.5772
0.9948	0.7795	9.6430
1.0481	0.7513	9.5407
1.0211	0.8064	9.5880
1.0032	0.7878	9.5365
0.9936	0.7944	9.5485
0.9781	0.7717	9.5706
1.0181	0.7735	9.5671
1.0092	0.7950	9.5551
1.0146	0.7687	9.5647
1.0211	0.8435	9.4917
0.9733	0.8506	9.5700
1.0229	0.7430	9.5946
1.0415	0.8016	9.5347
0.9805	0.8387	9.5730
0.9930	0.7382	9.5635
0.9834	0.9182	9.5557
1.0074	0.7819	9.5790
0.9482	0.8261	9.5174
0.9948	0.7968	9.5132
1.0349	0.7693	9.5886
1.0750	0.9164	9.5838
0.9996	0.8297	9.5359
1.0157	0.7442	9.5132
0.9972	0.7507	9.5527
1.0038	0.7932	9.5521
0.9787	0.7316	9.5784
0.9954	0.7603	9.5796
0.9781	0.8255	9.5270
0.9888	0.8165	9.6299
1.0098	0.7454	9.5928
1.0654	0.8548	9.5904
0.9799	0.8064	9.5246
1.0313	0.7950	9.5210
0.9942	0.7639	9.6059
0.9637	0.7807	9.6107
0.9517	0.7896	9.5413
0.9733	0.8130	9.5180
0.9541	0.7424	9.6101
1.0110	0.8841	9.5838
1.0002	0.8291	9.5641
1.0558	0.7460	9.5694
1.0528	0.7872	9.5497
1.0660	0.8076	9.5862
1.0187	0.7884	9.5467
1.0086	0.8291	9.5635
0.9356	0.7639	9.6035
0.9811	0.7537	9.5934
0.9637	0.7705	9.5318
0.9888	0.7789	9.5868
1.0325	0.8004	9.5365
1.0522	0.7902	9.5551
1.0648	0.7615	9.5336
1.0349	0.8285	9.5665
1.0026	0.8088	9.5419
0.9805	0.8261	9.5461
0.9828	0.7705	9.5760
0.9559	0.9123	9.5760
0.9828	0.7645	9.5748
1.0110	0.7801	9.5611
1.0522	0.7747	9.5569
1.0720	0.7819	9.5677
1.0750	0.8148	9.5820
1.0295	0.8112	9.5509
1.0367	0.8393	9.5389
0.9697	0.8207	9.5353
0.9649	0.7609	9.5952
0.9565	0.7555	9.5760
1.0062	0.7651	9.5509
1.0229	0.7615	9.5288
1.0768	0.7741	9.5425
1.0325	0.8303	9.5617
1.0624	0.8094	9.5234
1.0074	0.8154	9.5832
0.9541	0.8130	9.5288
0.9697	0.7633	9.5808
0.9607	0.7501	9.5796
1.0098	0.7699	9.5347
0.9930	0.7280	9.5706
1.0044	0.7783	9.5509
1.0403	0.6365	9.5306
1.0092	0.8465	9.5688
1.0038	0.8213	9.6065
0.9709	0.8010	9.5593
1.0247	0.7795	9.6113
0.9601	0.7819	9.5730
1.0211	0.7579	9.5581
0.9936	0.6951	9.5623
1.0469	0.7860	9.5802
1.0068	0.7854	9.5778
1.0223	0.7896	9.5706
0.9870	0.8405	9.6095
1.0026	0.7830	9.6071
0.9900	0.7549	9.5892
0.9918	0.7615	9.6263
1.0074	0.7495	9.5138
1.0546	0.7501	9.5958
0.9649	0.7621	9.5647
1.0690	0.7986	9.4989
0.9751	0.8734	9.5706
1.0199	0.7938	9.5312
0.9888	0.7824	9.5395
0.9673	0.7950	9.5946
0.9751	0.7268	9.5252
0.9649	0.7513	9.5234
1.0540	0.7609	9.6323
0.9805	0.7974	9.5778
1.0756	0.7633	9.5635
0.9894	0.8560	9.6173
1.0235	0.8387	9.5395
1.0199	0.7824	9.6167
1.0175	0.7687	9.5587
0.9918	0.7675	9.5162
1.0104	0.7280	9.5455
1.0199	0.7328	9.5766
0.9631	0.8219	9.5270
1.0229	0.7944	9.5294
0.9655	0.8734	9.5342
1.0486	0.8381	9.5665
1.0134	0.7681	9.5581
1.0193	0.7890	9.5240
1.0002	0.6323	9.5922
0.9858	0.7495	9.5718
1.0169	0.7627	9.5611
1.0092	0.7878	9.5599
0.9912	0.8159	9.5844
1.0038	0.7711	9.5760
0.9775	0.8004	9.5700
1.0917	0.7842	9.5814
0.9631	0.7705	9.4917
1.0104	0.8094	9.5922
0.9577	0.7035	9.5910
0.9834	0.7872	9.5754
0.9398	0.8189	9.6233
0.9990	0.7932	9.5653
1.0373	0.8016	9.6341
1.0140	0.8189	9.5880
1.0660	0.7908	9.5228
1.0522	0.8004	9.5377
0.9805	0.6772	9.5916
1.0307	0.7723	9.5461
1.0026	0.7908	9.5593
0.9625	0.8447	9.6376
1.0558	0.7699	9.5886
1.0391	0.7633	9.5503
1.0409	0.7603	9.5988
1.0307	0.7693	9.5934
1.0008	0.8231	9.6149
1.0104	0.7501	9.5389
0.9805	0.8213	9.5964
0.9733	0.8052	9.6137
1.0439	0.7495	9.5455
1.0367	0.7681	9.5461
1.0313	0.7753	9.5784
1.0110	0.7633	9.5700
1.0355	0.7795	9.5180
1.0026	0.7675	9.5868
0.9799	0.8040	9.5760
1.0289	0.7627	9.6221
0.9476	0.7573	9.5617
1.0379	0.7884	9.5198
1.0187	0.8064	9.6448
1.0056	0.7735	9.5934
1.0510	0.7824	9.5318
0.9996	0.8112	9.5491
1.0151	0.8058	9.5377
1.0026	0.7765	9.5772
0.9882	0.7711	9.5252
1.0469	0.7484	9.4510
1.0104	0.7711	9.5677
1.0163	0.7226	9.5491
1.0050	0.7699	9.5001
0.9440	0.7645	9.5437
1.0175	0.8405	9.5473
0.9607	0.7884	9.5653
1.0169	0.7860	9.5617
0.9834	0.7573	9.5246
1.0373	0.7836	9.6185
0.9715	0.7693	9.7998
0.9978	0.7932	9.5575
0.9565	0.8333	9.5419
0.9930	0.8465	9.5964
0.9613	0.7974	9.5431
1.0163	0.8171	9.5300
1.0044	0.7717	9.5832
1.0618	0.8028	9.5569
0.9954	0.7633	9.6418
1.0104	0.8142	9.5431
0.9858	0.8327	9.5030
1.0014	0.8488	9.5551
0.9781	0.7699	9.5485
1.0439	0.8154	9.5336
1.0146	0.7980	9.6071
1.0492	0.8046	9.6000
1.0534	0.7286	9.6580
0.9906	0.8548	9.5443
0.9583	0.8716	9.5156
1.0134	0.8345	9.5952
0.9631	0.6257	9.6012
1.0325	0.8183	9.5425
1.0708	0.8130	9.5826
1.0169	0.7854	9.7286
1.0451	0.7412	9.5587
0.9817	0.8459	9.5832
0.9811	0.8698	9.5371
0.9954	0.8327	9.6143
1.0403	0.7771	9.5976
1.0151	0.8267	9.5240
1.0205	0.7717	9.5162
1.0433	0.7651	9.6323
1.0223	0.7286	9.5976
1.0080	0.8195	9.5838
0.9470	0.8638	9.6149
0.9805	0.7687	9.7022
0.9918	0.7125	9.6789
1.0421	0.7783	9.5353
0.9601	0.8004	9.5748
1.0774	0.7370	9.6083
1.0337	0.7316	9.5994
1.0247	0.7962	9.3918
0.9739	0.8273	9.5324
1.0235	0.8130	9.5509
1.0295	0.7567	9.5766
1.0283	0.8118	9.4247
1.0235	0.7645	9.5796
1.0074	0.7436	9.6502
1.0612	0.7753	9.5168
0.9254	0.8800	9.5473
0.9948	0.8273	9.5665
0.9607	0.8100	9.5772
1.0002	0.8237	9.5736
1.0445	0.8124	9.4995
1.0265	0.8255	9.5288
1.0672	0.7256	9.6053
0.9781	0.7352	9.5102
1.0469	0.8130	9.4600
0.9601	0.8644	9.5365
0.9864	0.7974	9.5593
1.0666	0.7519	9.5563
0.9679	0.7681	9.5342
1.0522	0.8154	9.5204
0.9882	0.7077	9.6209
0.9954	0.7406	9.5748
0.9482	0.8219	9.5270
0.9266	0.8189	9.6472
1.0116	0.7328	9.6065
0.9954	0.7597	9.5850
0.9589	0.8171	9.5204
1.0457	0.7675	9.6017
0.9996	0.7507	9.6514
1.0128	0.7729	9.5587
0.9870	0.7866	9.6000
0.9464	0.8483	9.6000
1.0313	0.7801	9.5437
1.0038	0.8207	9.5276
1.0612	0.7561	9.5144
1.0157	0.8303	9.6161
1.0421	0.7364	9.5599
1.0092	0.8094	9.5180
1.0253	0.8207	9.5431
0.9224	0.8746	9.5688
1.0810	0.7962	9.5718
0.9751	0.8118	9.6012
1.0582	0.7621	9.5162
0.9799	0.8177	9.5718
1.0205	0.7860	9.5569
0.9972	0.7920	9.4977
1.0181	0.8375	9.5808
0.9852	0.8333	9.5712
1.0409	0.7914	9.5665
1.0074	0.7926	9.4905
1.0522	0.7968	9.5240
0.9703	0.7543	9.5677
1.0181	0.7795	9.5437
1.0367	0.7711	9.5419
1.0175	0.8261	9.5802
1.0247	0.7830	9.5180
1.0690	0.8285	9.5228
1.0181	0.8189	9.5096
1.0486	0.7777	9.5431
1.0349	0.7830	9.5575
0.9470	0.8315	9.5336
1.0690	0.7956	9.5796
0.9649	0.8082	9.5647
1.0504	0.8016	9.5312
1.0331	0.7878	9.5048
1.0229	0.8034	9.5359
1.0642	0.7603	9.5922
1.0128	0.7573	9.4977
0.9936	0.7842	9.4684
1.0086	0.8494	9.5671
0.9482	0.7980	9.6000
1.0439	0.7651	9.5324
1.0068	0.9111	9.5048
1.0624	0.7902	9.5365
0.9625	0.8022	9.6227
0.9984	0.8159	9.5377
0.9607	0.8154	9.5036
0.9924	0.8070	9.6699
0.9577	0.7651	9.6670
1.0313	0.7932	9.5581
0.9805	0.8321	9.5383
1.0540	0.7813	9.6179
0.9362	0.7149	9.6628
0.9834	0.7501	9.5718
1.0026	0.7836	9.5766
0.9673	0.7836	9.6137
1.0050	0.7131	9.5383
1.0349	0.7723	9.5228
1.0373	0.7573	9.5443
1.0223	0.8148	9.5587
0.9924	0.9075	9.5359
0.9978	0.7950	9.4965
1.0241	0.8094	9.5539
0.9888	0.8333	9.5916
1.0134	0.7896	9.5060
1.0564	0.7962	9.5138
1.0175	0.7878	9.4875
1.0134	0.7920	9.5880
1.0337	0.8189	9.5515
0.9948	0.8279	9.5485
1.0187	0.7908	9.6209
0.9583	0.7920	9.6257
1.0606	0.7412	9.5952
0.9846	0.8375	9.5611
1.0690	0.7466	9.5629
0.9751	0.7795	9.6047
0.9930	0.7531	9.6418
0.9452	0.7980	9.5455
0.9727	0.9087	9.5802
0.9763	0.7561	9.5671
1.0337	0.7711	9.5168
0.9948	0.8064	9.5760
1.0050	0.8040	9.5258
1.0211	0.7549	9.5168
0.9978	0.8177	9.5389
1.0516	0.7705	9.5491
0.9870	0.8399	9.5784
1.0074	0.8118	9.5054
1.0469	0.7932	9.5886
1.0313	0.8112	9.5497
1.0187	0.7693	9.5581
1.0259	0.7310	9.6490
0.9763	0.8213	9.6466
1.0295	0.7573	9.5898
0.9320	0.7950	9.6029
1.0181	0.7478	9.5581
1.0157	0.8124	9.5545
1.0235	0.7639	9.5359
0.9739	0.7400	9.5904
0.9745	0.7316	9.5551
0.9948	0.8201	9.5365
0.9882	0.7777	9.5796
0.9721	0.8154	9.4983
1.0708	0.7920	9.5102
0.9769	0.8273	9.5557
1.0235	0.7842	9.5162
1.0175	0.7382	9.5527
0.9817	0.8136	9.6012
0.9685	0.7603	9.5533
0.9721	0.7902	9.6448
0.9452	0.7711	9.5587
1.0367	0.8309	9.5946
0.9840	0.7824	9.5916
0.9972	0.7657	9.5377
1.0247	0.7687	9.5772
0.9577	0.7842	9.5694
1.0241	0.7478	9.5916
0.9661	0.8441	9.5832
1.0265	0.7573	9.4468
1.0445	0.8453	9.5306
1.0325	0.7663	9.5449
1.0259	0.7765	9.5880
0.9870	0.7184	9.5629
1.0062	0.7872	9.5413
0.9900	0.7657	9.6227
0.9308	0.8076	9.5718
1.0475	0.7304	9.5413
0.9541	0.8076	9.6023
1.0355	0.7872	9.5473
1.0223	0.7268	9.6041
1.0080	0.7430	9.6723
0.9960	0.7771	9.5677
0.9619	0.8818	9.6335
1.0217	0.8016	9.5659
1.0528	0.7908	9.6053
1.0241	0.7268	9.5473
1.0128	0.8267	9.5198
0.9667	0.7454	9.6012
0.9661	0.7872	9.5449
0.9787	0.7352	9.4899
0.9828	0.8518	9.5611
1.0929	0.7448	9.5688
1.0038	0.8148	9.5730
1.0881	0.7777	9.4229
1.0056	0.8154	9.6341
0.9954	0.7394	9.5730
0.9846	0.7830	9.5790
0.9870	0.8261	9.6161
1.0157	0.7836	9.5730
0.9960	0.7519	9.6029
1.0020	0.7316	9.5198
1.0690	0.7567	9.5736
0.9416	0.7741	9.5988
1.0558	0.7687	9.5473
0.9350	0.7717	9.4713
1.0486	0.8064	9.5222
1.0175	0.7980	9.5108
1.0522	0.7902	9.5778
1.0498	0.7400	9.5204
0.9864	0.8249	9.5054
1.0588	0.8823	9.6059
0.9141	0.8542	9.5330
1.0313	0.7388	9.5377
0.9458	0.8195	9.5599
1.0510	0.7627	9.6203
0.9679	0.7071	9.6364
1.0397	0.7651	9.5455
0.9840	0.8070	9.6263
0.9583	0.8034	9.5677
1.0193	0.7268	9.5629
0.9924	0.8201	9.5246
0.9918	0.8255	9.5389
0.9882	0.7621	9.5449
1.0798	0.7478	9.4893
0.9960	0.8596	9.5377
0.9840	0.7507	9.5659
1.0600	0.7759	9.5485
0.9978	0.7783	9.5419
1.0146	0.7783	9.5886
1.0134	0.8034	9.5407
1.0062	0.7567	9.5647
1.0092	0.8704	9.5282
1.0128	0.7071	9.5431
1.0702	0.8961	9.5521
0.9894	0.7986	9.5078
0.9440	0.8488	9.4707
1.0104	0.8626	9.5838
0.9745	0.8130	9.5599
0.9673	0.7424	9.4923
1.0672	0.8429	9.4755
0.9966	0.7938	9.6029
1.0343	0.7364	9.6538
0.9936	0.7244	9.5868
0.9757	0.8375	9.5389
1.0163	0.7819	9.5066
0.9828	0.7244	9.5521
1.1515	0.6957	9.5156
0.9763	0.8488	9.5096
1.0277	0.7896	9.5401
1.0253	0.7962	9.5048
0.9793	0.8010	9.5599
1.0056	0.8357	9.5671
0.9858	0.8291	9.6293
1.0481	0.7005	9.5862
0.9673	0.8309	9.5832
1.0193	0.7400	9.5796
1.0074	0.8279	9.5371
0.9541	0.8070	9.5946
0.9499	0.7609	9.5282
1.0510	0.7819	9.5342
0.9338	0.7986	9.6071
1.1563	0.6843	9.5425
0.9972	0.8465	9.5365
1.0229	0.7436	9.5898
0.9912	0.7693	9.5988
1.0110	0.8076	9.5892
1.0205	0.7890	9.6000
0.9045	0.8351	9.5240
1.0576	0.7184	9.5688
1.0403	0.7890	9.5336
0.9840	0.7998	9.5563
1.0181	0.8249	9.5419
1.0486	0.7125	9.5557
0.9715	0.8082	9.5533
1.0379	0.8142	9.5892
0.9697	0.7759	9.5940
1.0361	0.7657	9.5318
1.0804	0.7567	9.6352
1.0301	0.7400	9.5527
1.0816	0.7376	9.5659
0.9571	0.8560	9.5730
1.0403	0.8016	9.5928
0.9452	0.8303	9.6089
1.0277	0.7424	9.5802
0.9972	0.8022	9.6335
1.0528	0.7609	9.6251
0.9852	0.8052	9.5874
1.0205	0.9141	9.6747
0.8961	0.8249	9.5599
1.0564	0.7513	9.6311
0.9296	0.7801	9.7100
1.0343	0.7454	9.5515
1.0409	0.9117	9.5132
0.9577	0.8100	9.4923
1.0343	0.7412	9.5784
0.9954	0.8154	9.5371
1.0385	0.7555	9.5557
1.0163	0.8321	9.6059
1.0367	0.7418	9.5132
1.0193	0.8411	9.4426
1.0558	0.7783	9.6185
1.0080	0.8034	9.5862
0.9242	0.7777	9.5066
0.9541	0.8177	9.6209
1.0295	0.8363	9.5706
0.9452	0.8070	9.6029
0.9583	0.8118	9.5318
1.2239	0.7501	9.4953
1.0481	0.7998	9.6448
0.9727	0.7854	9.5276
1.0702	0.7813	9.4797
0.9930	0.7956	9.6059
0.9338	0.8494	9.5318
1.0092	0.8070	9.6370
1.0187	0.7747	9.5013
1.0546	0.7346	9.5742
0.9571	0.8596	9.5132
1.0732	0.7424	9.5623
0.9152	0.7968	9.5671
1.0510	0.8016	9.5653
0.9499	0.7950	9.6245
0.9936	0.7759	9.5563
1.0582	0.7693	9.4648
1.0373	0.8919	9.6388
1.0020	0.7902	9.5353
1.0104	0.7741	9.5796
0.9643	0.7699	9.6173
0.9876	0.8064	9.4965
0.9966	0.7830	9.6179
0.9571	0.7591	9.5736
1.1061	0.7370	9.5401
0.9852	0.8165	9.5874
1.0349	0.7489	9.5084
1.0253	0.7896	9.5671
0.9811	0.7663	9.6227
1.0038	0.7723	9.5377
1.0187	0.7986	9.6083
1.0481	0.7795	9.5587
1.0451	0.7543	9.4803
1.0451	0.7699	9.5952
0.9416	0.8602	9.5503
1.0080	0.7950	9.5515
0.9434	0.7639	9.5706
1.0038	0.8028	9.5623
1.0020	0.7543	9.4983
0.9906	0.7884	9.6083
1.0732	0.7119	9.4534
0.9535	0.8297	9.5204
1.0259	0.7711	9.4695
0.9799	0.8734	9.5682
0.9805	0.7280	9.5922
1.0211	0.8016	9.5413
1.0062	0.8189	9.5485
1.0810	0.7262	9.4965
1.0804	0.7651	9.6017
1.0122	0.8387	9.5138
0.9996	0.7735	9.6634
0.9111	0.8195	9.6257
0.9757	0.7597	9.5353
1.0187	0.8273	9.6400
0.9852	0.7501	9.6209
1.0845	0.7208	9.6000
0.9547	0.7735	9.4941
0.9996	0.8776	9.5342
0.9763	0.6126	9.7322
0.9194	0.7777	9.6341
1.0086	0.7095	9.5144
0.9511	0.7735	9.5359
1.0104	0.7519	9.5300
1.0839	0.6730	9.5533
0.9505	0.7932	9.5736
1.0702	0.8058	9.4995
0.9577	0.7047	9.7908
1.0020	0.7567	9.5413
1.0307	0.8118	9.5007
0.9960	0.7537	9.6634
1.0451	0.7986	9.5413
1.0762	0.7143	9.4857
1.0002	0.8578	9.5635
0.9476	0.9458	9.5359
0.9924	0.7155	9.6544
0.9589	0.7579	9.6077
1.0684	0.8154	9.5252
0.9458	0.7705	9.7268
1.0726	0.7412	9.4833
1.0528	0.7149	9.6065
0.9589	0.8339	9.5982
1.0283	0.8417	9.4869
0.9398	0.7340	9.6490
0.9888	0.7298	9.4666
1.0995	0.7430	9.6173
0.9505	0.7328	9.6825
1.0941	0.8219	9.4648
1.0092	0.8363	9.5216
0.9727	0.8028	9.6376
0.9954	0.7878	9.5443
1.0068	0.7484	9.6317
0.9960	0.8249	9.3882
1.1031	0.7819	9.5150
0.9769	0.7842	9.6119
1.0522	0.8674	9.4630
1.0235	0.7454	9.6945
1.0540	0.8297	9.6251
1.0857	0.7460	9.5324
0.8889	0.7615	9.6867
1.0941	0.8148	9.4875
0.9882	0.7125	9.5383
0.9811	0.8201	9.6209
1.0708	0.7956	9.3684
0.9021	0.7860	9.7513
0.9834	0.8435	9.5413
0.9805	0.8106	9.5623
1.0116	0.7711	9.6819
1.1324	0.7071	9.4935
0.9374	0.7125	9.5682
1.1826	0.8985	9.3738
0.9894	0.8644	9.4295
0.9380	0.8094	9.6035
1.0367	0.7388	9.4666
0.9057	0.7059	9.6586
1.0696	0.8136	9.4031
1.0469	0.8327	9.4953
0.9655	0.7274	9.6197
1.0720	0.8644	9.5240
0.9009	0.7250	9.7274
1.0223	0.8124	9.4067
1.0187	0.7956	9.4971
1.0169	0.8213	9.6107
1.1234	0.7651	9.5084
0.9493	0.7669	9.6580
1.0528	0.8913	9.4211
0.9924	0.8889	9.7232
0.9751	0.8183	9.6071
1.0235	0.7549	9.5940
0.9517	0.7639	9.6999
1.0409	0.7980	9.5491
0.9703	0.7753	9.7208
1.0128	0.7017	9.5324
0.9505	0.8566	9.5192
0.9864	0.7513	9.6287
1.0146	0.8040	9.5677
1.0080	0.6855	9.5844
0.9882	0.8052	9.4923
1.0038	0.7292	9.5353
1.0427	0.7759	9.6119
0.9380	0.7418	9.5844
1.0331	0.7699	9.5383
0.9141	0.8213	9.5401
0.9739	0.7364	9.5132
1.0690	0.6999	9.6077
0.9673	0.8112	9.6059
0.9960	0.8159	9.4893
1.0469	0.8076	9.4468
1.0020	0.8357	9.5635
1.0570	0.8387	9.6012
0.9015	0.7711	9.5168
1.1061	0.7944	9.4773
0.9691	0.9117	9.4857
1.0271	0.8076	9.6687
1.0056	0.7627	9.6221
0.9739	0.7878	9.5623
0.9697	0.8213	9.5940
0.9595	0.8201	9.5970
1.0110	0.7172	9.5880
0.9649	0.7777	9.5347
0.9769	0.8034	9.5449
0.9739	0.8088	9.6915
1.0211	0.7178	9.6209
0.9972	0.7077	9.6113
0.9769	0.8728	9.6113
1.0463	0.7723	9.5030
0.9667	0.7705	9.5563
1.0026	0.7675	9.4205
0.9577	0.7609	9.5892
0.9206	0.7723	9.5718
1.0690	0.7585	9.4438
0.9523	0.7878	9.5647
1.0534	0.7878	9.4941
0.9129	0.7579	9.5024
1.0175	0.8363	9.4672
1.0486	0.7902	9.5126
1.0068	0.8477	9.6197
1.0020	0.7651	9.5814
0.9811	0.8022	9.5563
1.0433	0.7765	9.5581
1.0014	0.8279	9.6083
0.9601	0.8261	9.5910
0.9487	0.8106	9.5264
0.9793	0.8004	9.5778
0.9583	0.6891	9.5826
1.0110	0.7418	9.3870
0.9553	0.8584	9.5359
0.9948	0.7908	9.5485
1.0163	0.7005	9.5958
0.9206	0.8459	9.5282
1.1216	0.8010	9.5443
0.9194	0.7573	9.7298
1.0486	0.7071	9.5455
1.0439	0.7884	9.5102
1.0355	0.7956	9.5665
1.0307	0.8357	9.5904
1.0457	0.7328	9.6161
1.0199	0.8369	9.5772
0.9565	0.7083	9.5730
1.0265	0.8028	9.5126
0.9775	0.8189	9.5940
1.0128	0.8297	9.5581
1.0642	0.7735	9.5850
0.9906	0.8070	9.6029
1.0026	0.7860	9.4935
0.9589	0.7920	9.4498
1.0080	0.8219	9.6287
0.9326	0.7890	9.4971
1.0457	0.7866	9.6029
1.0684	0.7932	9.6358
0.8070	0.8118	9.5898
1.0313	0.7400	9.5383
0.9972	0.8542	9.5581
0.9380	0.8118	9.5988
0.9392	0.8315	9.5533
1.0122	0.6275	9.7268
0.9906	0.6502	9.5874
1.0738	0.8171	9.5252
0.9260	0.8381	9.5970
1.0098	0.7137	9.5330
0.9643	0.8686	9.5898
1.1139	0.7214	9.3990
0.9374	0.8333	9.5880
0.9978	0.7328	9.5485
1.0762	0.7663	9.5682
0.9643	0.7478	9.6029
0.9643	0.8345	9.4337
0.9553	0.8692	9.4606
1.0032	0.7651	9.5581
1.0337	0.7597	9.6388
0.9996	0.7107	9.5401
1.0415	0.8303	9.5036
1.0080	0.8112	9.6993
0.9206	0.8303	9.5808
1.0666	0.7436	9.5491
0.9482	0.7932	9.5629
1.0367	0.9176	9.5359
1.0223	0.8399	9.5282
1.0403	0.7250	9.6454
0.9996	0.7920	9.6305
0.9918	0.8381	9.6089
0.9787	0.6383	9.5898
1.0403	0.7681	9.6370
1.0845	0.6879	9.6346
0.9954	0.7250	9.3786
0.9751	0.8411	9.4109
0.9302	0.8076	9.6317
1.0349	0.7101	9.5174
0.9870	0.7627	9.4947
1.0510	0.7842	9.4552
1.0959	0.7992	9.4983
0.9775	0.8100	9.5946
0.9404	0.8195	9.4719
0.9936	0.7364	9.6119
0.9954	0.9003	9.5030
1.0008	0.8297	9.4887
0.9924	0.6185	9.5593
0.9996	0.8734	9.6179
0.9990	0.7460	9.5533
0.8441	0.8674	9.5485
1.1485	0.7424	9.5748
0.8812	0.8040	9.6227
1.0181	0.7298	9.5425
1.0780	0.8004	9.6568
0.9242	0.8542	9.5892
0.9912	0.7986	9.5090
1.0498	0.6999	9.6520
0.9882	0.7466	9.6388
0.9470	0.8100	9.4588
0.9876	0.5815	9.6711
0.9416	0.6610	9.6287
1.0510	0.8704	9.3529
0.8800	0.9876	9.5916
1.0427	0.6508	9.6442
1.0403	0.7543	9.5078
1.0612	0.6987	9.5084
0.9093	0.8662	9.5671
0.9834	0.7705	9.4953
0.9356	0.7466	9.3667
1.0989	0.7974	9.4815
1.0002	0.8183	9.7022
1.0504	0.7346	9.6035
1.0780	0.7484	9.6035
0.9793	0.8698	9.6263
0.9852	0.8136	9.4965
0.9948	0.8183	9.5838
1.0169	0.6688	9.6155
1.0433	0.7364	9.5473
1.0104	0.8189	9.4881
0.9882	0.8261	9.6346
0.9685	0.7974	9.4815
1.0247	0.7190	9.5491
0.9260	0.7759	9.6143
0.9763	0.7525	9.5599
1.0128	0.8183	9.5401
0.9141	0.8512	9.5934
1.0451	0.8614	9.5347
1.0062	0.7059	9.7130
0.9781	0.7675	9.6335
1.1133	0.7687	9.4145
0.9308	0.8022	9.5330
1.1049	0.7232	9.6610
0.9368	0.8614	9.5437
0.9697	0.8488	9.5802
1.0845	0.6754	9.5677
1.0762	0.8913	9.5545
1.0439	0.8417	9.5204
0.9230	0.8207	9.5641
0.9368	0.8291	9.7118
0.9284	0.7196	9.5682
1.0122	0.7633	9.5904
1.0098	0.7866	9.5347
1.0128	0.7460	9.6179
0.9864	0.7388	9.5527
0.9673	0.9057	9.6628
0.9924	0.7627	9.5377
0.9571	0.6975	9.6275
1.1228	0.7591	9.5078
1.0421	0.9021	9.5940
1.0385	0.7579	9.5838
1.0163	0.8046	9.6341
0.8650	0.8201	9.4115
1.1127	0.7759	9.5007
0.9870	0.8578	9.6711
1.0672	0.7824	9.5084
0.9691	0.7579	9.6083
1.0301	0.7531	9.5569
0.9039	0.9906	9.5377
1.2048	0.6622	9.5336
0.9631	0.8441	9.6293
1.1174	0.5707	9.6155
0.8877	0.8004	9.6681
1.1085	0.7729	9.5862
0.8782	0.8387	9.5383
1.0768	0.6867	9.5916
1.0612	0.7729	9.7100
1.0068	0.8010	9.4881
1.0821	0.8010	9.4893
0.9416	0.8985	9.5868
0.9589	0.8076	9.6227
1.0373	0.7753	9.6418
0.9661	0.7220	9.5826
1.0780	0.7801	9.4061
1.0157	0.7585	9.6418
0.8644	0.8716	9.6341
1.0690	0.7669	9.6263
0.9422	0.6969	9.6323
1.0720	0.6712	9.5120
1.1115	0.8393	9.5491
0.9811	0.7920	9.5671
1.0307	0.7388	9.5784
0.9894	0.8411	9.4977
1.0313	0.8716	9.5198
1.0295	0.7292	9.5868
1.0732	0.8698	9.5431
0.9942	0.7819	9.5455
0.9499	0.8548	9.5970
0.8997	0.8423	9.5013
0.9709	0.7442	9.6221
1.0181	0.6927	9.5318
1.0941	0.6951	9.6430
0.8393	0.8070	9.5892
0.9924	0.7621	9.6029
0.8758	0.7507	9.4241
0.9601	0.7681	9.6460
1.0833	0.6957	9.4624
0.9840	0.8985	9.5096
0.9565	0.8309	9.5342
0.8997	0.8973	9.7040
0.9852	0.7956	9.6281
0.9182	0.7400	9.6215
1.1348	0.6305	9.4857
1.0116	0.8279	9.6532
0.9912	0.7789	9.5623
0.8895	0.8309	9.4737
0.9589	0.6873	9.4833
1.0229	0.7292	9.6789
1.0929	0.7747	9.5437
1.0720	0.7920	9.4474
0.9739	0.8907	9.5054
0.9589	0.8309	9.7190
0.9458	0.8010	9.7220
0.9978	0.7095	9.6729
0.9727	0.7304	9.4815
1.0869	0.8088	9.5850
0.8758	0.8309	9.5671
1.0247	0.7657	9.5359
0.9709	0.6939	9.4989
1.0343	0.8201	9.5706
1.0199	0.8046	9.4995
0.9924	0.8201	9.5521
1.0457	0.7155	9.5048
1.0295	0.8728	9.6717
1.0522	0.7370	9.6083
1.0169	0.7890	9.6071
1.1198	0.7543	9.4767
0.9876	0.9075	9.5222
0.9631	0.7813	9.7238
0.8393	0.8375	9.3661
0.9362	0.7908	9.5712
0.9637	0.7765	9.5222
1.0738	0.7789	9.7369
0.9918	0.6682	9.5258
1.0116	0.8052	9.4719
0.9846	0.8919	9.3696
0.8387	0.8704	9.6598
1.1450	0.5414	9.5820
1.0331	0.7202	9.6197
1.1073	0.8357	9.5300
0.9805	1.0403	9.6412
0.9828	0.6311	9.5515
1.0313	0.6580	9.5551
1.0827	0.7262	9.6813
0.8973	0.8351	9.5324
0.9458	0.8327	9.5365
1.0014	0.7382	9.5216
1.0756	0.7412	9.6035
1.0451	0.7460	9.5988
0.9888	0.8183	9.5916
1.0163	0.8177	9.3714
0.8788	0.9003	9.6173
0.8991	0.7555	9.6041
0.9464	0.8070	9.5198
1.0134	0.5306	9.5222
1.2389	0.8243	9.6909
0.9996	0.7807	9.6149
0.9685	0.9075	9.3960
0.9930	0.6999	9.3972
0.9332	0.7956	9.6083
1.0851	0.8399	9.5521
0.9218	0.8620	9.4564
0.9834	0.8985	9.3888
1.0486	0.7729	9.5832
1.0002	0.7484	9.6209
1.0175	0.6772	9.6323
0.9918	0.8578	9.6143
0.9170	0.7777	9.6424
1.0899	0.7986	9.6155
0.9511	0.7424	9.6717
1.0247	0.6652	9.3972
1.1456	0.9440	9.5587
0.7807	0.8124	9.4959
1.0367	0.7753	9.5336
1.0331	0.6825	9.6909
0.9230	0.7974	9.6915
1.1378	0.7160	9.7579
1.0606	0.7896	9.6388
1.1348	0.7190	9.6101
1.0421	0.8363	9.5563
0.8698	0.8931	9.5766
0.9607	0.7830	9.4965
1.1312	0.8022	9.6179
0.8716	0.8309	9.6125
1.1318	0.8177	9.7770
1.0367	0.8154	9.5270
1.0409	0.6742	9.7381
1.0678	0.8973	9.5383
0.9864	0.8650	9.5467
0.9170	0.7208	9.5054
1.0391	0.8321	9.5790
0.9775	0.7184	9.5192
1.0863	0.6568	9.6837
1.1091	0.6526	9.6418
0.9643	0.8770	9.5324
1.0463	0.9170	9.4600
0.7771	0.8770	9.5180
1.0409	0.5097	9.4929
1.1109	0.8680	9.6197
0.9206	0.8710	9.5461
0.9266	0.8273	9.5994
1.1438	0.7561	9.6305
0.9081	0.7693	9.7112
1.0989	0.6520	9.7070
0.9828	0.8297	9.6352
0.9404	0.8656	9.5007
1.1049	0.8524	9.4259
0.8572	0.7579	9.5587
1.0726	0.3721	9.4929
1.1689	0.8076	9.6012
0.9194	0.8309	9.6083
1.0798	0.9822	9.5072
0.9057	0.7214	9.4498
0.9057	0.7537	9.5282
1.1539	0.8345	9.5186
0.7789	0.8441	9.7022
1.0678	0.6120	9.5258
0.9529	1.0271	9.6514
0.9631	0.5958	9.6580
1.0241	0.6329	9.7746
1.0044	0.8686	9.4498
0.9547	0.9793	9.3966
0.9948	0.7896	9.4612
1.0672	0.6215	9.6341
1.0869	0.5641	9.5682
1.0475	0.8734	9.5934
0.9123	1.0241	9.5599
0.9434	0.7125	9.3924
0.9368	0.8871	9.5509
1.0205	0.6514	9.4283
1.0702	0.8662	9.6083
1.0074	0.6544	9.6149
1.0463	0.9799	9.6041
0.9553	0.8177	9.6155
0.9386	0.6389	9.6867
1.0875	0.7065	9.4929
1.0325	0.9236	9.4719
0.9721	0.8243	9.4576
1.1336	0.7298	9.6179
1.0313	0.6520	9.7034
1.1085	0.6604	9.6735
0.9577	0.9625	9.6185
0.8596	0.7226	9.4576
1.1300	0.8788	9.4636
0.8632	0.7525	9.5234
1.0851	0.6078	9.6987
1.1605	0.7310	9.6131
0.8985	0.9673	9.2452
1.0313	0.8776	9.5216
0.8638	0.7573	9.6107
0.9212	0.4750	9.5910
1.2042	0.8901	9.6699
0.9087	0.8883	9.5198
1.1133	0.7262	9.3828
1.0187	0.9553	9.6041
0.9158	0.5898	9.3625
1.1563	0.8614	9.7214
0.9236	0.6796	9.7112
1.0642	0.9021	9.7519
1.0092	0.7926	9.4408
0.9781	0.6072	9.6508
1.1880	0.6825	9.5252
0.8231	0.8734	9.6041
1.0833	0.8435	9.6658
1.0050	0.8076	9.5090
0.8937	0.6401	9.7214
1.1527	0.6712	9.4331
0.7824	0.9422	9.7340
1.1210	0.6389	9.4725
1.0654	1.0134	9.6867
0.9368	0.6054	9.4660
1.0391	0.7711	9.5760
0.9799	0.7609	9.5629
0.8357	0.9769	9.4905
1.1527	0.7597	9.6891
0.9553	0.8034	9.5994
1.2706	0.5174	9.5641
0.7525	0.9595	9.3696
1.0080	0.8758	9.6448
1.0732	0.8028	9.4456
0.8770	0.7041	9.7357
1.1868	0.4409	9.4809
0.9529	0.9511	9.4809
1.0140	0.7107	9.4151
1.0086	1.0821	9.5030
0.9553	0.6766	9.6329
0.9135	0.6909	9.7022
0.9828	0.7591	9.5443
0.7950	1.0068	9.5970
1.1557	0.7573	9.4815
1.0002	0.7872	9.7256
1.1360	0.4612	9.7244
0.8680	0.9200	9.4498
0.7711	0.8662	9.5210
1.0259	0.8704	9.5431
0.9129	0.7741	9.7657
1.0373	0.5097	9.6975
1.2538	0.7484	9.3954
0.8423	0.8608	9.4983
1.1737	0.8500	9.4259
0.9828	0.7011	9.5060
0.9338	0.5527	9.5886
1.0062	0.8052	9.3888
0.7549	0.9918	9.5814
1.0959	0.7597	9.2769
0.9093	0.8686	9.6891
1.1880	0.6042	9.7531
1.0259	0.8279	9.6161
0.8381	0.8118	9.6412
0.9822	0.8829	9.6239
0.8393	0.8752	9.8267
0.9840	0.3643	9.5096
1.1964	0.7346	9.3320
0.8351	0.8512	9.5557
1.1820	0.8913	9.3750
0.9033	0.8076	9.3415
1.0690	0.4648	9.7471
0.8770	0.6395	9.5473
0.8136	0.8782	9.5515
1.1964	0.8973	9.5473
0.7992	0.8578	9.6047
1.2299	0.4696	9.5048
1.0151	0.8961	9.5539
0.8752	0.8913	9.5246
1.0002	1.0893	9.5479
0.6897	0.6658	9.6448
1.0911	0.4822	9.7489
1.0552	0.7830	9.6813
1.0528	0.8536	9.7244
1.2514	0.9912	9.6017
0.7795	0.5988	9.6215
1.3041	0.6598	9.5724
0.7675	0.7980	9.6795
1.0086	0.7149	9.3708
0.9912	1.0098	9.6831
0.9141	0.5432	9.5521
1.2969	0.6365	9.6370
0.8877	0.8818	9.6975
1.1007	0.9535	9.4761
0.8638	1.0774	9.7178
0.9649	0.4080	9.5982
1.0941	0.6167	9.4935
0.8375	0.9972	9.3750
1.0762	0.9858	9.5353
1.0510	0.8040	9.7495
1.0780	0.5432	9.7136
1.0690	0.7083	9.7256
0.7962	0.8429	9.6035
0.9942	1.0038	9.4624
0.8560	0.6987	9.4426
1.0774	0.4905	9.4935
1.1145	0.7495	9.6251
0.8650	0.9601	9.5605
1.0504	1.0983	9.4648
0.7262	0.4983	9.6915
1.3687	0.5408	9.7256
0.7974	0.8692	9.4582
0.9416	0.9170	9.2560
1.0373	1.0229	9.4247
0.9697	0.5611	9.5928
1.0672	0.6927	9.5162
0.8626	0.7454	9.6191
0.9954	1.1557	9.6137
0.9332	0.8548	9.6436
1.0570	0.5288	9.5306
1.2066	0.5587	9.6394
0.8877	0.8829	9.5084
1.0618	1.0708	9.4378
0.9206	0.7801	9.4235
1.1414	0.5420	9.7489
1.0636	0.7196	9.5910
0.7896	0.7920	9.6795
1.2215	0.9781	9.2536
0.6724	0.8405	9.5054
1.2861	0.5252	9.6323
0.8859	0.9984	9.6281
1.0110	0.8393	9.6245
0.9607	1.0074	9.6311
0.8321	0.4445	9.6179
1.1539	0.5952	9.4008
0.7388	0.8506	9.6705
0.9942	0.9601	9.5569
0.9709	0.7705	9.4905
1.0869	0.5091	9.6083
1.2389	0.8656	9.6149
0.8279	0.7860	9.5784
1.1826	1.0259	9.5653
0.7807	0.7448	9.4582
1.1432	0.4576	9.3511
1.0546	0.7890	9.4384
0.9045	0.9362	9.4133
1.0379	1.0259	9.4588
0.8638	0.6329	9.6472
1.2108	0.5862	9.6113
0.8118	0.9547	9.5922
1.0702	1.0534	9.4965
1.0439	0.7896	9.5826
1.1342	0.5605	9.6741
1.1695	0.6634	9.4636
0.7914	0.9045	9.4965
0.9320	0.9529	9.5336
0.8297	0.6957	9.4767
1.1168	0.4816	9.4480
1.0463	1.0534	9.6311
0.8937	0.9547	9.4594
1.0911	0.9601	9.3852
1.0588	0.6562	9.5090
1.1438	0.6281	9.6227
0.9882	0.7992	9.7124
0.9799	0.9164	9.5312
0.9625	0.7962	9.5736
0.9362	0.6766	9.6622
1.0020	0.7836	9.5503
0.8806	0.8494	9.5479
1.0283	0.9697	9.6095
0.9458	0.7687	9.4121
0.9906	0.6568	9.5234
1.0181	0.9918	9.5042
0.7783	0.9200	9.7896
1.0427	0.6006	9.5748
1.1856	0.5043	9.6753
1.0187	0.9009	9.5623
0.9673	1.1575	9.5383
0.9009	0.7663	9.6987
0.9673	0.4672	9.7806
0.9918	0.3428	9.7663
0.9984	0.8124	9.8506
1.1228	1.0492	9.6131
0.8315	0.9661	9.5306
1.2610	0.5539	9.5467
0.8674	0.6945	9.5007
1.0678	0.8979	9.6191
0.9009	1.0654	9.7609
0.9990	0.4816	9.6478
1.2389	0.5605	9.5796
0.8800	0.8315	9.3565
1.0486	0.9655	9.2410
0.9093	1.0169	9.6538
1.0391	0.6999	9.7274
1.1390	0.7334	9.4588
0.9188	0.8764	9.5377
0.9876	0.9446	9.5694
1.0074	0.6849	9.7782
1.0720	0.5683	9.5096
1.0630	0.8794	9.4731
0.8656	1.0451	9.5904
0.9805	0.8261	9.5312
1.0786	0.5276	9.5168
1.0750	0.5372	9.6747
1.0732	0.8722	9.7375
1.0349	1.0325	9.4366
0.9619	0.7125	9.6406
1.0355	0.4732	9.7316
0.9493	0.6843	9.5539
1.0385	1.1061	9.5611
0.9499	1.0839	9.6550
1.0247	0.4618	9.4971
1.1737	0.6939	9.5682
0.7950	0.9176	9.4737
1.0193	1.1372	9.5844
0.7190	0.7244	9.7633
1.2825	0.4708	9.7704
0.9338	0.8435	9.6107
0.9380	0.9176	9.1842
1.0463	0.9529	9.5724
1.0427	0.6287	9.9481
1.1874	0.5719	9.5940
0.8883	0.9278	9.7357
0.9703	0.9571	9.4241
0.8847	0.8171	9.7082
1.0995	0.4223	9.6167
1.0744	0.9326	9.7052
0.8465	0.8225	9.6634
0.9667	0.9218	9.4193
1.0923	0.6790	9.7423
1.0445	0.5013	9.7286
1.0630	0.7340	9.4731
0.9362	1.0827	9.6089
0.9529	0.8207	9.5425
1.0301	0.5892	9.8727
1.1904	0.6784	9.6251
0.9476	1.0714	9.6000
0.9751	0.8818	9.4654
1.0331	0.6640	9.5013
1.0929	0.6191	9.7040
0.8524	0.8560	9.5467
0.9434	0.9529	9.3427
1.1168	0.7364	9.6729
1.0002	0.4786	9.7322
1.2144	0.7759	9.6490
0.8536	1.2389	9.2943
0.9320	0.9015	9.3379
0.9487	0.5360	9.8949
0.9685	0.5336	9.8949
0.9918	1.0732	9.6999
1.0361	0.9117	9.6047
0.9535	0.6090	9.4378
1.0504	0.6203	9.4307
0.9541	0.6933	9.6903
1.0636	0.9517	9.4935
0.9248	1.0427	9.2470
1.0271	0.7053	9.7334
1.0032	0.5737	9.5826
1.2030	0.9745	9.6652
0.8871	1.0014	9.6436
1.1791	0.7358	9.6035
0.9870	0.6449	9.6789
0.9691	0.7292	9.6927
0.9230	0.9954	9.5898
0.9200	0.6383	9.5246
1.2592	0.6610	9.5425
0.8004	0.8124	9.5186
1.1306	0.9176	9.3786
0.7944	0.8943	9.4947
1.1103	0.7531	9.5808
0.8800	0.7519	9.5766
1.0708	0.8148	9.7130
0.9063	1.0110	9.6017
1.0439	0.6802	9.6879
1.1683	0.5803	9.5754
0.7795	0.9751	9.4498
0.8901	1.0086	9.5994
0.8094	0.7884	9.3762
1.2012	0.6449	9.6538
1.0714	0.4941	9.6167
0.9308	0.8076	9.4049
0.9188	0.9966	9.3696
1.0594	0.8112	9.4008
1.1318	0.4816	9.6705
0.9763	0.6574	9.6664
0.8770	1.0893	9.5102
1.0110	0.8088	9.6945
1.2419	0.5121	9.6903
0.9320	0.7956	9.7471
0.9918	1.2030	9.4911
0.7669	0.9840	9.4283
1.2239	0.5402	9.6843
0.9906	0.4750	9.6233
0.9703	0.8788	9.3475
0.9882	1.1826	9.4474
1.0098	0.7298	9.5407
1.1665	0.3996	9.4797
1.0151	0.8303	9.6257
0.9272	0.9505	9.4911
0.9147	0.6347	9.4695
1.0546	0.3864	9.5659
1.0104	0.9805	9.4504
0.8506	1.0008	9.4977
0.9679	0.9338	9.5306
1.0295	0.5982	9.6711
1.0959	0.5946	9.8153
0.9930	0.9200	9.4863
0.9613	1.0558	9.6107
0.9129	0.7089	9.4636
0.9254	0.5360	9.4002
0.9344	0.9882	9.4701
0.7848	0.8560	9.4689
1.0157	0.6963	9.3469
0.9817	0.6945	9.4600
1.0522	0.7729	9.6317
0.7501	1.0355	9.4612
1.0122	0.8704	9.6705
1.0481	0.6760	9.5832
1.0463	0.6682	9.6999
1.2778	0.7896	9.8554
0.9990	1.0810	9.3684
1.0666	0.8602	9.5365
1.1067	0.3434	9.8703
1.0002	0.5348	9.6813
0.8249	1.0732	9.5521
0.9547	0.8201	9.2877
1.0552	0.6676	9.4731
0.9691	0.7472	9.6448
0.9960	1.0714	9.2715
1.0457	1.1133	9.3511
0.8865	0.3470	9.6329
1.1485	0.5964	9.5503
1.0116	1.1826	9.5096
1.0445	1.1246	9.3595
1.0552	0.5013	9.6544
1.0205	0.6885	9.8464
1.0445	0.9302	9.4923
0.8560	1.0905	9.6430
1.1372	0.4989	9.7848
1.0032	0.5216	9.6388
0.9739	1.0014	9.6705
1.0080	1.1240	9.2931
0.8853	0.8094	9.7669
0.8668	0.3649	9.8368
1.0821	0.7047	9.3726
0.9721	0.8524	9.7160
0.8602	0.9003	9.5060
1.1366	0.4618	9.5078
1.1785	0.6544	9.6586
0.9392	0.9087	9.4654
0.8979	0.8997	9.2889
1.0744	0.5844	9.4091
0.9063	0.5336	9.5036
1.2096	0.8118	9.4893
0.7531	1.1294	9.5623
1.1964	0.8165	9.3756
0.8806	0.8584	9.6017
1.1485	0.5396	9.8015
0.7747	1.1360	9.4803
1.0140	0.7615	9.6239
1.1282	0.6479	9.6418
0.9918	0.6628	9.6478
0.8285	1.0582	9.6699
0.9876	0.8189	9.5084
1.0217	0.5509	9.5318
0.9284	0.5970	9.7172
1.1755	0.7878	9.5246
0.8680	1.0469	9.4971
1.1527	0.5091	9.5599
0.8524	0.6191	9.3451
1.1832	0.9452	9.3792
0.8333	1.1533	9.2512
1.1156	0.5450	9.9170
0.9404	0.6371	9.6101
0.9828	0.9655	9.4133
0.8602	1.0104	9.6239
0.9344	0.7376	9.3828
1.1354	0.5689	9.6676
0.9057	0.6796	9.6502
1.3059	1.0301	9.5802
0.7962	0.9930	9.5958
1.0768	0.5270	9.6975
1.0002	0.5737	9.6382
0.9888	1.0313	9.8075
0.8865	1.0385	9.3290
1.0349	0.3482	9.4941
1.2239	0.7226	9.5246
0.8267	1.0014	9.6801
0.8829	1.0690	9.4145
1.0247	0.7908	9.4594
0.8829	0.4379	9.6352
1.0307	0.7059	9.4079
0.9260	1.0738	9.3403
1.0307	0.8584	9.6622
1.3005	0.6401	9.4067
0.9673	0.8871	9.7298
0.8853	0.9721	9.4749
0.9541	0.8219	9.4498
1.0899	0.4552	9.5443
1.0624	0.7531	9.5569
1.0397	0.9158	9.6676
1.0199	0.7322	9.4755
1.0032	0.6688	9.5910
0.9063	0.7819	9.7710
1.0971	0.7962	9.8195
1.0014	0.8931	9.7639
1.0367	0.5456	9.7417
1.1647	0.5611	9.6789
0.9631	0.9817	9.5419
0.7908	1.1480	9.6035
0.9589	0.7137	9.3493
1.0116	0.4163	9.6687
0.8656	0.7190	9.7076
0.8841	1.0361	9.4325
1.2245	0.9476	9.3852
0.9368	0.5826	9.5629
1.0415	0.6275	9.2715
1.0439	1.2108	9.3696
0.9338	0.9182	9.1675
1.1557	0.3990	9.4761
1.0253	0.7280	9.7477
1.0457	0.9894	9.5581
0.7968	0.7663	9.4695
1.0618	0.4630	9.4139
0.9691	0.8465	9.5222
1.0337	0.7190	9.4360
0.9691	1.1097	9.7082
1.1749	0.7394	9.5503
1.0971	0.8393	9.8207
1.0510	0.8207	9.6502
0.9284	1.2694	9.4109
1.1180	0.7436	9.6556
1.0475	0.3930	9.7663
1.0373	0.6502	9.6568
0.8106	1.0953	9.6251
0.9649	0.4708	9.5880
0.8596	0.4199	9.6909
0.9152	0.7693	9.6729
1.0839	1.0379	9.4480
0.9637	0.7807	9.8979
1.0181	0.5497	9.6705
1.0552	0.9583	9.5312
0.8883	0.9912	9.4390
0.7807	1.0265	9.3613
1.2341	0.4283	9.3954
1.1587	0.7675	9.3601
0.9320	0.7998	9.4241
0.7890	1.0199	9.3260
1.1611	0.7041	9.5072
0.6987	0.4941	9.4797
1.1216	0.9254	9.2751
1.0074	1.0504	9.4480
1.0708	0.4756	9.6514
1.0546	0.7896	9.3332
1.2341	1.1450	9.3361
0.8686	1.1121	9.3523
0.7914	0.4624	9.2775
1.0648	0.6371	9.4432
0.8925	0.8267	9.4313
0.9529	0.8686	9.4881
1.0672	0.8716	9.2512
1.0917	0.6221	9.5078
0.8776	0.7932	9.5718
1.0439	1.1599	9.4331
0.9942	0.8405	9.6687
1.1168	0.6239	9.6795
1.1073	0.6538	9.5138
0.9667	1.0349	9.6418
0.9482	0.8303	9.6544
1.1252	0.5468	9.6352
0.9493	0.5701	9.6658
0.8483	1.0492	9.4349
1.1282	0.8841	9.6586
1.0576	0.5928	9.7728
0.9745	0.7029	9.7561
1.0397	1.0343	9.5796
0.8082	0.9948	9.6293
1.1982	0.3978	9.8877
0.8973	0.7220	9.8404
1.0774	1.0319	9.6765
0.8764	0.8195	9.5491
1.2126	0.4977	9.5754
0.8889	0.8321	9.7477
0.8823	0.8279	9.6622
0.8632	0.8710	9.6550
1.1497	0.4457	9.6951
0.9553	0.7507	9.6909
1.0827	0.9984	9.4127
0.7962	1.0893	9.4875
0.9296	0.6233	9.6664
1.0983	0.6975	9.6263
0.9123	0.8913	9.4444
0.8255	1.1061	9.3152
1.1288	0.3673	9.5736
1.1491	0.8979	9.8285
0.8746	0.9075	9.5413
0.9715	0.9577	9.5539
1.0851	0.3972	9.5467
0.9111	0.6108	9.6873
1.0690	0.9338	9.4576
1.0301	1.0122	9.4145
0.9619	0.5713	9.6424
0.9721	0.6796	9.6574
1.1402	0.9081	9.2303
0.7358	1.0355	9.2841
1.1336	0.4989	9.5114
1.0504	0.7149	9.5545
1.0965	1.0875	9.3332
0.7065	1.1809	9.2847
1.1156	0.4600	9.5497
0.7759	0.4929	9.7082
1.0792	0.9200	9.2620
1.0026	0.8847	9.4349
0.9846	0.5719	9.4019
0.9822	0.7615	9.2039
1.1258	1.1270	8.9330
0.7777	1.2879	9.2697
1.1115	0.3009	9.3009
1.0660	0.7340	9.6137
1.0104	0.9033	9.3882
0.7705	1.2449	9.2392
1.1127	0.6496	9.3505
0.8273	0.7280	9.6263
0.9571	0.5904	9.4528
0.9834	1.1031	9.3936
0.9523	0.5282	9.7238
1.0217	0.7777	9.4630
1.0917	1.2149	9.2979
0.9799	0.9805	9.5126
1.0379	0.3392	9.7627
1.0319	0.7848	9.6197
1.1007	1.0457	9.5802
0.9158	0.7872	9.4684
1.0750	0.5539	9.3092
0.9876	0.7328	9.6203
0.9200	0.8847	9.3978
1.0463	0.9793	9.3469
1.0576	0.5462	9.4947
1.1408	0.5456	9.2644
1.0786	1.2323	9.1770
0.9966	1.1707	9.2458
0.9751	0.5354	9.7980
1.0917	0.6485	9.8554
0.9858	0.8626	9.5312
0.7807	0.9176	9.5700
1.1725	0.5755	9.5766
0.9781	0.7980	9.8440
0.9374	1.0044	9.5288
0.8201	1.1324	9.3601
1.1599	0.5204	9.9774
0.9224	0.5336	9.9188
1.2479	0.9278	9.1980
0.8949	1.1623	9.6711
1.0481	0.3906	9.8027
1.0893	0.6861	9.9601
0.8782	0.9416	9.5389
0.8602	0.8997	9.4498
1.2215	0.3912	9.7070
1.0534	0.8494	9.7884
0.9559	0.7699	9.6616
1.0223	0.9631	9.6628
1.1438	0.5617	9.5868
0.8100	0.7119	9.7926
1.0678	0.9613	9.2392
0.7914	1.2161	9.5898
1.3507	0.5737	9.8249
1.0289	0.9840	9.6789
0.8016	1.0451	9.6227
0.9338	0.7166	9.6951
1.2353	0.3290	9.6831
0.9147	0.8614	9.7573
1.0104	0.6568	9.7190
1.0570	0.7950	9.6969
1.1354	0.6323	9.5036
0.7364	0.6598	9.7800
0.9571	0.8680	9.4492
0.9434	0.8979	9.8105
1.1928	0.5300	9.5838
1.1079	1.0618	9.6897
0.8704	0.8279	9.7537
1.0211	0.7998	9.6143
1.1743	0.4217	9.7441
0.9129	0.8943	9.8745
0.9589	0.6855	9.6137
0.9529	0.6993	9.6281
1.1085	0.5396	9.7549
0.9619	0.7531	9.7878
1.0977	0.9200	9.5700
0.9326	0.9362	9.7441
1.0630	0.4427	9.6185
1.1527	0.9051	9.5383
1.0355	1.3023	9.7459
0.9326	0.6873	9.7328
1.0187	0.5647	9.6418
0.8614	0.8124	9.8177
0.9105	0.7519	9.5832
1.1097	0.5970	9.5964
1.1192	0.6867	9.8380
1.0403	0.6634	9.7459
0.8668	1.0684	9.4193
1.0887	0.8016	9.7962
0.9224	0.4732	9.8542
1.1073	0.9691	9.2763
1.0451	1.1797	9.5060
1.1168	0.2189	9.8350
1.1982	0.5958	9.8201
0.9278	1.0289	9.7268
0.8447	0.7890	9.5132
1.0534	0.4959	9.6406
0.9697	0.6293	9.6239
0.8578	0.5659	9.3667
1.0546	1.0163	9.4121
1.1707	0.8417	9.4923
0.9595	0.6233	9.7034
0.8106	1.1820	9.2757
0.9535	0.9619	9.4815
1.0744	0.4816	9.7058
1.0732	1.0235	9.5922
0.8626	1.0486	9.7920
1.1186	0.5785	9.5479
0.9757	0.6197	9.5856
1.0211	0.8255	9.7076
1.0193	0.9236	9.4133
1.0821	0.6820	9.5162
1.1509	0.5856	9.6041
1.0391	0.7681	9.3667
1.0696	1.2197	9.2997
0.9751	0.7160	9.4193
0.8961	0.3966	9.3475
1.1067	1.2580	9.1292
0.9410	1.0660	9.1477
1.1432	0.4128	9.7196
0.9936	1.0223	9.6047
0.9547	1.1210	9.4043
0.8303	0.8955	9.1914
1.0594	0.6879	9.1734
0.7944	0.8608	9.5371
0.9105	0.6401	9.2632
0.9673	1.0810	9.4959
1.0618	0.5486	9.5659
1.1127	0.6748	9.6825
0.8459	0.9482	9.1537
0.9625	0.8500	9.5479
1.0863	0.3332	9.5521
1.0857	1.0217	9.1902
0.9380	1.0720	9.4911
0.9535	0.8040	9.3092
1.1180	0.5157	9.5617
0.7125	1.0020	9.6843
1.0056	0.8656	9.4995
1.0983	0.4433	9.6975
0.8800	0.4774	9.9146
1.2688	0.9541	9.5724
0.9583	1.1737	9.4283
0.9703	0.5605	9.7196
1.1186	0.6191	10.0031
0.8877	0.8698	9.6640
0.9577	0.8291	9.6077
1.2813	0.4618	9.7334
0.9900	0.9410	9.7680
0.7890	0.7579	9.6472
0.9990	0.9212	9.3290
1.0373	0.5821	9.6771
1.0546	0.4774	9.5102
0.9924	1.0074	9.6065
0.9912	0.9733	9.5491
1.0032	0.4397	9.5718
1.0277	0.9254	9.6801
0.9505	1.4052	9.4618
0.9954	0.3392	9.7962
1.0768	0.5055	9.8392
1.3017	1.0929	9.5539
0.7166	0.9613	9.5120
1.2688	0.6490	9.5874
0.9326	0.7501	9.7800
0.7292	0.6849	9.3732
0.9589	0.8363	9.2488
1.2066	0.6120	9.5222
1.0481	0.5509	9.3978
0.8237	1.3681	9.4390
1.0516	0.9398	9.2638
0.7902	0.5073	9.3134
1.0289	1.0816	9.4636
0.7537	1.0229	9.6263
1.0917	0.5856	9.6071
1.0379	0.6096	9.6251
0.9236	1.0923	9.4109
0.8130	1.0857	9.6185
1.1025	0.4822	9.5276
0.7980	0.6945	9.8943
1.2030	0.6796	9.6029
0.9547	1.2490	9.2781
1.0821	0.5821	9.6855
1.2658	0.8321	9.8668
0.7531	0.8435	9.7328
0.9852	0.8674	9.5419
0.9703	0.3296	9.7130
0.9141	0.8812	9.8398
0.9996	0.6646	9.8823
1.1527	0.6790	9.7459
1.0510	0.6748	9.7172
1.0181	0.8291	9.6789
1.0469	0.8285	9.3948
0.9828	0.7382	9.7208
1.2239	0.3356	9.7226
1.0941	1.1300	9.3547
1.0122	1.2323	9.1824
1.1372	0.5228	9.4839
1.0163	0.9027	9.8147
0.7615	0.9188	9.3218
0.8776	0.5450	9.3427
0.9858	0.6915	9.3463
0.8369	1.0624	9.5371
0.9380	0.7717	9.5491
1.0044	1.0080	9.3661
0.8937	0.4881	9.8004
1.1432	0.9918	9.5617
1.0624	0.9637	9.3074
0.9242	0.6592	9.7752
1.1246	0.4361	9.6640
1.1934	1.2437	9.0376
0.8189	1.0564	9.0885
1.3478	0.4564	9.4989
1.0157	0.7484	9.6323
0.9033	0.7914	9.5958
0.9236	0.8853	9.6442
1.0247	0.5653	9.4965
0.7729	0.9440	9.7346
0.9487	0.8656	9.5868
1.0289	0.7836	9.7591
0.7543	0.4122	9.9505
1.2365	1.0827	9.6801
0.7591	1.2586	9.4869
1.0008	0.4062	9.7399
1.0325	0.6849	9.9349
0.9302	0.8937	9.5641
0.9356	0.6646	9.3936
1.1958	0.4750	9.6538
1.0684	0.9111	9.8979
0.8255	0.4056	9.8033
1.0989	0.7172	9.5407
0.8506	0.6173	9.4169
1.1480	0.9188	9.3248
0.9200	1.1019	9.0628
0.9745	0.5868	9.5144
1.0265	0.5192	9.4271
0.8578	1.3860	8.9814
0.8459	1.3872	8.7601
1.1695	0.3386	9.1543
1.0002	1.0720	9.4821
0.7328	0.8997	9.3966
1.0720	0.7819	9.5940
0.9147	0.5222	9.4929
0.9960	0.9254	9.6017
0.9972	0.8106	9.7256
1.0845	0.4780	9.8650
0.9864	0.4086	9.8829
1.2341	0.8794	9.5078
1.0163	1.0792	9.4462
1.2957	0.5043	9.8440
1.1832	0.7328	9.9960
0.6496	0.8608	9.7447
0.9517	0.8812	9.6687
0.6975	0.0921	9.8093
1.0702	0.9129	9.7663
0.8357	0.8800	9.7603
1.0122	0.7268	9.7280
0.8297	0.8124	9.7238
0.8052	0.9619	9.2213
0.8022	1.1324	9.3134
1.2329	0.7077	9.3314
1.0684	0.7573	9.5228
0.9218	0.9428	9.1896
1.0510	0.9577	9.3523
1.0504	0.3733	9.3547
1.0427	1.3472	8.9210
0.7908	1.0337	9.1651
0.9278	0.5043	9.4438
1.1282	0.6335	9.6580
0.8441	1.1133	9.6652
1.0600	0.6891	9.4217
1.0690	0.9218	9.4169
0.9206	0.9775	9.7872
0.9356	0.9152	9.7932
0.9930	0.6096	9.6843
1.0146	0.4756	9.7848
1.0917	1.1958	9.4875
1.0098	1.2490	9.7375
1.2532	0.3858	9.9732
1.1288	0.7926	9.9433
0.7729	0.8871	9.9355
1.0319	0.5635	9.6167
1.0965	0.6640	9.2703
1.0080	1.1192	9.4845
0.9045	0.9487	9.2147
0.9320	0.8806	9.5467
0.9314	0.5497	9.9415
1.0953	0.7549	9.6119
0.9697	1.0169	9.4749
1.2574	0.5587	9.8291
1.1055	0.7131	9.8739
0.9111	0.7705	9.6915
0.9416	0.7119	9.8536
1.0122	0.1573	9.6729
1.1749	1.0869	9.7124
1.0379	0.7220	9.5599
1.1910	0.5527	9.8410
0.9960	0.6772	9.9230
0.7388	0.8441	9.5437
0.8997	1.0319	9.2548
1.0582	0.6855	9.3559
0.9697	0.7400	9.4624
0.8883	1.1791	9.2967
0.9972	0.8722	9.4498
1.0032	0.4923	9.6077
1.0044	1.2514	9.2446
0.7753	1.1390	9.0197
1.1593	0.3918	9.5653
1.0355	0.7232	9.5467
1.0361	0.8100	9.3936
1.0397	0.8895	9.5324
1.0971	0.6790	9.4014
1.0325	0.9356	9.3499
0.8734	1.0271	9.5072
1.1192	0.7083	9.8458
1.0570	0.4044	9.6807
0.8548	1.3914	9.4534
1.0146	1.1761	9.1286
1.2000	0.4636	9.2225
1.0463	0.9811	9.4378
0.7597	1.0750	9.2356
0.9733	0.4696	9.5407
1.0588	0.3625	9.6550
0.9380	1.1168	9.6376
1.0403	0.9601	9.3272
1.2341	0.5599	9.6012
0.9230	0.6820	9.9403
0.9888	0.7095	9.6430
1.0857	0.7579	9.5162
1.0140	0.4271	9.7040
0.9482	1.2778	9.3625
0.9523	1.5033	9.5784
1.0522	0.3852	9.9469
0.8429	0.6383	9.9014
0.8016	0.9888	9.6855
1.1509	0.5677	9.4618
1.1503	0.8387	9.5545
0.9811	1.0277	9.5156
0.8919	1.0750	9.5210
0.9793	0.4810	9.7357
0.8752	0.4666	9.8937
1.1892	0.8883	9.4301
0.7771	1.1109	9.6323
1.4064	0.5067	9.7830
1.1964	0.6317	10.3118
0.9308	1.0588	9.8273
1.0839	0.5468	9.6628
0.8201	0.2590	9.6873
0.9834	1.1874	9.1262
0.7525	0.7890	9.5760
1.2580	0.6730	9.6412
0.9505	0.8548	10.0624
0.8997	0.6849	9.4630
1.0146	0.7687	9.4552
1.0026	0.5348	9.4941
1.2999	1.1342	9.7902
0.8237	1.2700	9.7016
0.9523	0.5509	10.1132
1.0229	0.5605	10.1359
0.9954	0.9332	9.3810
1.0217	0.7412	9.4043
1.2084	0.4373	9.3038
1.0355	1.1844	9.6508
0.8094	0.7998	9.7453
1.0193	0.9296	9.6843
0.8806	0.5097	9.9942
1.3872	0.7166	9.5359
1.0510	1.1234	9.5024
1.1874	0.4487	9.6245
1.2813	0.7759	9.7346
0.7388	0.8638	9.6699
0.9721	0.6724	9.7782
0.8626	0.1220	9.8213
0.8746	1.1174	9.5712
0.8716	0.6580	9.4887
1.0522	0.5916	9.6586
1.0522	0.9081	9.8817
0.7334	0.7268	9.7250
1.0798	0.8237	9.5635
0.9147	0.4265	9.9930
1.3645	0.9164	9.6987
0.7968	1.2000	9.4935
1.1886	0.3769	9.3469
1.1474	0.7220	9.8171
0.7501	1.0140	9.4564
0.9691	0.6628	9.4642
0.9458	0.4181	9.6472
0.9990	1.0379	9.4085
0.9864	0.7238	9.6257
1.1874	0.6161	9.8243
0.9828	0.5677	9.9846
0.9858	0.8620	9.6041
0.9230	0.9063	9.6843
1.0720	0.4229	9.6263
1.1109	1.2508	9.4743
0.7962	1.2718	9.0532
0.9763	0.5677	9.8147
0.9141	0.7627	9.6681
0.5725	1.0427	9.4941
1.1133	0.7920	9.2117
1.1551	0.5527	9.5593
1.0469	1.0851	9.6945
1.0451	1.0289	9.5569
1.0875	0.4504	9.8650
1.0134	0.3787	9.7381
1.0403	0.9482	9.1471
1.1001	1.1366	8.9772
0.9769	0.3404	9.1794
1.1462	1.3220	9.4169
0.6987	1.3759	9.2303
0.8895	0.3888	9.6077
0.8542	0.5049	9.5443
0.7238	0.8620	9.4067
1.1671	0.9870	9.2548
0.8686	0.6018	9.5473
0.9577	1.1288	9.3427
0.7765	1.3783	9.2835
1.0546	0.5402	9.6861
0.8847	0.0670	9.8021
0.7962	1.1509	9.0777
0.9852	1.0959	9.2105
1.2299	0.5533	9.0592
1.0522	1.1061	9.5036
0.8752	0.9206	9.4905
1.3896	0.1262	9.8105
0.9493	0.6126	10.0163
0.9499	0.9709	9.1130
1.2987	1.0732	9.1710
1.2843	0.7525	9.7459
1.2694	1.0014	9.6939
0.7777	0.9607	9.7262
1.0821	0.3302	9.7399
1.0175	0.2291	9.8446
0.8554	0.8776	9.4169
0.9272	0.9266	8.7272
0.8309	0.2734	9.0173
0.9846	1.3902	9.1740
0.6915	0.8620	9.4576
1.1689	0.5749	9.6006
0.8148	0.8399	10.1036
0.8429	0.9547	9.5706
1.0780	1.1079	9.7519
0.7561	0.0329	9.9798
1.4883	1.0104	9.3637
0.7711	1.2401	9.6699
1.4321	0.6574	9.5180
0.9793	0.7783	9.7166
0.5994	1.1575	9.6035
0.8596	0.5378	9.4833
0.8369	-0.0287	9.7399
0.7340	1.0319	9.3445
0.9063	1.0181	9.0179
1.2843	1.0038	9.2811
1.2072	1.0660	9.4636
1.0409	1.2682	9.2638
0.9254	0.8841	9.5365
0.9535	-0.0401	9.8309
0.8273	1.1497	9.1687
0.9284	1.0720	9.0053
1.3675	0.6628	9.7549
1.1480	1.1402	9.3044
0.9135	0.6598	9.4444
1.4064	0.0849	9.8273
0.9679	0.5952	9.9870
0.7262	0.8638	9.4091
1.1198	1.0995	9.3517
0.9015	0.2321	10.0707
1.1581	0.9404	9.8470
0.9631	1.1037	9.8871
1.3292	0.2171	9.8207
1.3214	0.7567	9.9086
0.5180	1.5781	9.4630
0.8136	0.5671	9.5443
1.0863	0.2776	9.9152
0.4869	0.9428	9.5024
1.2251	0.9577	8.9252
0.8943	0.4205	9.0257
1.0002	1.2646	8.7762
0.9206	1.7085	8.9294
0.9954	0.6461	9.5162
1.0193	0.1597	9.8141
1.0498	1.0756	9.2793
0.8985	1.1384	9.5264
1.0277	-0.1424	8.8139
0.9308	1.4614	8.5399
0.8435	1.2060	8.3509
1.3968	0.3721	8.9413
1.0839	0.6173	9.4701
0.7705	1.1713	9.2662
1.2359	0.4026	9.8709
0.9338	0.4080	9.9696
0.8118	0.8758	9.7609
1.3083	0.8823	9.6041
1.0379	-0.0790	10.0169
0.9996	1.2197	9.4378
0.9655	1.4644	9.8668
1.3621	0.5623	9.7166
1.2072	0.8351	9.9164
0.9398	0.9117	9.8297
1.2096	0.2530	9.6143
1.0331	-0.2662	9.8674
0.5599	1.1360	8.9970
1.1396	1.1737	8.7170
0.9828	0.8764	8.8211
1.1420	1.0193	8.9060
0.8883	1.4506	8.9437
1.4877	0.5198	9.6245
1.1539	0.8680	10.0552
0.8321	1.4028	9.1268
0.8955	0.7807	9.7064
1.0534	-0.2692	10.1090
0.6377	1.0833	9.5796
0.9003	0.9344	9.3840
1.1121	0.8423	9.2775
0.8333	1.2556	9.5198
0.7178	1.2861	8.8097
1.4351	0.5539	9.6490
0.9811	0.3966	9.2697
0.9308	1.1133	7.8263
0.7131	1.2395	8.4664
0.8973	0.1496	9.1716
0.6814	1.1527	8.7673
0.9571	0.9141	8.8450
1.1432	0.1723	9.7591
0.9111	1.0104	9.2063
0.8650	1.4752	9.0448
1.5152	0.5480	9.9523
1.1372	0.4983	10.3465
0.9428	0.9380	9.8279
1.2090	0.3852	9.8985
0.7747	0.1370	9.6059
0.6209	1.2646	9.4989
0.8459	1.2556	9.0101
0.9057	-0.2285	9.5018
1.0163	0.9464	9.1555
0.7478	1.1988	8.7134
1.2514	0.7448	8.9898
1.0546	1.0409	9.4642
0.6831	1.1156	9.0927
1.5254	0.2889	9.8841
1.2461	0.2674	10.2831
0.7974	0.9051	10.0390
1.3125	0.6514	9.4935
1.1360	-0.0126	9.9003
0.7412	0.8040	9.3140
1.2849	1.0259	9.0825
1.2012	0.1783	9.6843
1.0576	1.0187	9.4887
0.6167	1.5529	8.9617
1.1797	0.7406	9.2404
1.0259	0.7065	9.7292
0.6682	1.0451	9.1980
1.1809	0.6837	9.3894
1.1282	0.3840	10.0821
0.6658	1.1354	9.8273
1.0247	1.0289	9.0903
0.8740	-0.2692	9.9684
0.9440	0.4528	9.3152
0.9571	1.2921	9.0000
1.2843	0.6682	9.4899
0.9972	1.0929	9.3326
0.4696	1.7252	8.7332
1.2933	0.6532	9.6436
1.2538	0.3529	9.7998
0.5773	1.1234	9.0514
1.1025	0.9230	9.4809
1.1731	0.4839	9.9840
0.5294	1.2018	9.1746
1.3184	0.6831	9.1316
1.0983	-0.5856	9.6173
0.8746	0.6431	8.6979
1.2030	1.4925	8.8265
1.1671	0.7125	9.2979
1.1127	0.9063	9.2428
0.8955	1.2293	9.2117
1.3717	0.3105	9.2943
1.1767	0.5228	9.5007
0.8136	0.9290	9.3332
1.2772	0.8943	9.1651
1.0343	0.3446	10.1527
0.9428	0.6712	9.6329
1.1874	0.6502	9.4061
0.9541	0.0951	10.0648
0.8088	0.9858	9.4743
0.9374	1.4267	9.0981
1.1067	0.6156	9.6987
1.2694	0.6622	9.7884
0.5515	1.2802	8.9623
1.3812	0.8201	9.4378
1.0486	0.9966	10.0869
0.5713	1.2132	9.1812
1.0959	0.9147	9.6472
1.0098	0.1250	10.3064
0.6287	0.8237	9.2578
1.1928	1.0552	9.1190
0.8512	0.5294	9.9260
0.7274	1.1222	8.7912
0.8949	1.4046	9.0341
1.0780	0.5019	9.3589
0.9362	0.8806	9.1651
0.4666	1.4800	8.8516
1.3501	0.8740	9.3248
1.1330	0.7777	9.6981
0.7848	1.0899	9.3296
1.3268	0.2094	9.4390
0.9529	0.0329	9.9577
0.7914	0.8931	9.1980
1.3304	0.9775	8.9569
1.0977	0.1669	9.1423
1.1605	0.7430	9.1651
1.0816	1.0774	8.8480
1.1480	0.6126	9.2775
0.8746	1.1246	9.1878
0.4510	1.4614	8.8241
1.2784	0.7789	9.2757
1.2461	0.6347	9.8937
0.7119	0.8219	9.4492
1.3812	0.5533	9.4713
0.9170	0.3763	10.1288
0.8853	0.7836	9.3888
1.2496	0.6132	9.1998
1.0774	-0.2536	9.0173
0.9446	0.6682	9.0227
1.2120	1.3041	8.4538
0.8536	0.7753	9.0879
0.9308	0.9242	8.9886
0.6820	1.2837	9.1603
1.1294	0.6580	9.0705
1.1145	0.8506	9.4025
0.3529	1.2796	8.8085
1.4028	0.8261	9.3308
1.0373	0.4433	10.4823
0.9129	0.6891	9.9451
1.1354	0.7244	9.9397
0.9589	-0.1047	10.0007
0.7322	1.0792	9.4175
0.9673	1.6809	8.8965
0.8255	0.3864	10.0342
1.1988	0.8979	9.5389
0.6485	1.2502	9.2434
1.0522	0.6479	9.2674
0.9787	0.8901	9.7842
0.5480	1.2317	9.3529
1.5487	0.3320	9.9780
1.3077	0.0000	10.3088
1.0738	0.7651	10.1030
1.1976	0.8142	9.7160
1.1509	0.0694	10.0348
1.1055	0.9374	9.7914
0.9422	0.9715	9.2590
1.0780	-0.0526	9.6287
0.9093	1.0062	9.1322
0.7932	1.2748	8.8947
1.2407	0.6455	9.2476
1.2730	0.8518	9.6975
0.8267	0.8865	9.5258
1.5846	0.4469	9.5276
1.1456	0.6126	10.2047
0.8148	1.4895	9.3469
1.1480	0.8339	9.3242
1.0965	0.1065	9.9553
1.1844	1.0510	9.0167
0.6185	1.2939	8.8935
1.1402	0.1388	9.4857
0.4857	1.1928	9.3804
0.7184	1.2096	8.9192
1.1222	-0.1340	9.7220
0.6837	0.9081	9.1692
1.0271	1.1659	9.0173
1.2233	1.0433	9.3529
0.7651	1.0427	9.5593
1.0546	1.5900	8.9060
1.1013	0.8154	9.1782
0.8961	0.8219	9.4289
0.7472	1.4859	9.0693
0.9272	0.7418	9.4151
1.2580	0.3314	10.0648
0.8399	0.5677	9.8679
1.0050	0.2453	9.5844
1.3196	0.2148	9.7728
0.7986	0.9057	9.5288
1.1282	1.0319	9.0400
1.1982	0.2925	9.6442
0.7986	0.7795	9.1543
1.2999	1.2179	8.9371
0.9320	0.8740	8.8540
0.7555	0.9565	9.1854
0.8560	1.0959	9.2333
1.2909	0.5318	9.4821
1.3777	0.6126	10.0390
0.7208	1.1402	9.2398
1.0205	0.8985	9.8344
1.0277	1.1348	10.1048
0.3541	0.9230	9.6221
1.3250	0.5563	9.4995
1.2724	0.3565	10.1922
0.9009	0.7753	9.7070
1.0905	1.0445	9.4953
1.0708	0.3823	9.7250
0.8734	0.5420	9.5575
1.3759	0.7968	9.2889
0.8776	-0.1208	9.5449
0.7974	0.8752	9.2440
1.0247	1.5769	8.5758
0.6096	0.6724	9.1561
1.0409	0.7627	9.2733
0.8728	1.1491	8.9820
1.0205	0.6108	9.1740
0.8046	1.0917	9.4713
0.7878	1.2903	9.3858
1.5141	0.8411	9.5587
1.0869	0.4510	10.3489
1.0516	0.9368	9.4061
1.4877	0.7196	9.0837
0.9882	0.8333	9.6969
0.9493	1.2586	8.9222
0.9822	0.7519	9.3625
1.4345	0.1884	9.8943
0.8285	0.6269	9.5413
0.9972	0.6359	9.5084
1.4315	0.6179	9.7555
0.4229	1.2796	9.6915
0.9565	0.9894	9.4366
1.0654	0.3936	9.6012
0.4080	0.8441	9.5342
0.9930	1.3466	9.1304
0.8847	1.0086	9.0837
0.6969	0.9685	9.5168
1.1874	0.6855	9.7357
1.1246	0.0915	9.6628
1.0403	0.5922	9.3876
1.0361	1.1216	8.9892
1.2514	0.8548	9.0795
1.0439	0.8459	9.4636
0.8979	0.9386	9.5120
1.3143	0.6299	9.1028
0.8835	0.7813	9.5096
0.6700	1.1252	9.5868
1.4584	0.8919	9.5988
0.9942	0.3200	10.1862
1.1025	0.7735	9.7752
0.9649	0.8070	9.5611
1.0283	0.4564	9.7609
0.8423	1.0457	9.5886
0.7178	1.0606	9.2793
1.2269	0.0843	9.9601
0.8465	0.6479	10.0995
1.2484	0.8195	9.3391
1.3430	0.0826	9.8033
0.9075	0.7274	9.9954
1.2742	1.1043	8.8839
1.0433	0.2704	9.6951
0.7322	0.4265	9.5730
1.1306	1.1677	8.9724
1.0475	0.9493	9.6699
0.8016	0.8572	9.3978
0.8782	1.3567	9.0993
1.0588	0.5276	9.6012
1.0971	0.5539	9.6215
0.5653	1.1964	9.0161
1.2778	1.0223	9.2715
0.9583	1.3890	9.6329
0.3559	1.3364	9.3272
1.5499	0.7944	9.7884
1.2622	0.4672	10.0019
0.6616	0.6239	9.7280
1.5924	0.9577	9.9349
1.0187	0.3260	10.2287
0.7974	0.9996	9.5551
0.8189	0.5713	9.9708
1.0953	-0.1232	10.0002
0.9176	0.9021	9.6502
0.9793	1.0857	9.9176
1.5027	0.2548	9.8392
0.6987	1.0881	10.0187
1.3190	0.6263	9.5862
1.3842	0.0221	9.7902
0.6120	0.7531	9.6843
1.2257	1.2562	8.8821
0.8859	0.4528	9.7256
0.7711	0.5952	9.2901
1.3854	0.8213	9.3505
1.0361	-0.1352	9.8147
0.7872	0.5599	9.3553
1.1001	1.3579	9.1238
0.9170	0.8231	9.4767
0.9278	0.5904	9.4283
1.0445	0.9266	9.1417
1.1994	0.8213	9.1022
0.7418	0.9739	9.3762
0.6802	1.1922	9.3278
1.2760	0.8500	9.3421
0.9751	0.6921	9.7471
0.9452	0.7807	9.6185
1.1366	1.0439	9.2075
0.7394	1.0486	9.2464
0.8554	1.3513	9.1902
1.1707	0.6197	9.3308
1.1551	0.4451	9.9080
0.8704	0.9404	9.5653
1.1390	0.7364	9.2644
1.1432	0.9505	9.7052
0.7609	1.0247	9.5252
1.1533	0.4995	9.5078
1.2957	0.6790	9.9026
0.7723	0.7226	9.5760
1.2646	0.8459	9.4241
1.2072	0.6742	9.9708
0.8148	0.7819	9.5007
1.0744	0.7083	9.7603
1.0140	0.4181	10.1497
0.9057	0.7250	9.8596
0.7184	0.9912	9.4863
0.9338	0.5515	9.9014
0.7011	0.9775	10.1874
0.7986	0.7813	9.6903
1.0349	0.1155	9.8087
0.6006	0.6766	10.0325
1.0481	0.9320	9.1046
1.0343	0.7765	9.4857
0.6526	0.7160	9.7812
1.2054	1.1994	8.8546
0.9918	0.3978	9.6191
0.6586	0.3643	9.4827
1.0857	1.1545	8.8929
0.8644	0.6054	9.6203
0.8746	0.7579	9.4791
0.8327	1.3166	9.0167
0.7980	0.4283	9.5180
0.8177	0.5916	9.0921
0.8955	1.4835	8.7966
1.0804	0.9170	9.5952
0.8195	0.8423	9.3930
0.7872	1.2173	9.0538
1.1067	0.6730	9.3260
0.6239	0.7579	9.1034
1.0869	1.3824	8.7637
0.9697	0.8931	9.1932
0.8650	0.6873	9.3355
1.1402	0.9499	9.4187
0.9876	0.5306	9.3332
0.9607	0.6335	9.2536
1.0217	1.0008	9.1298
1.2197	0.8387	9.0293
0.8572	0.8710	9.4767
1.2048	0.8201	9.2566
1.4686	0.5779	9.3110
0.8530	0.7585	9.5778
1.2155	1.1862	9.0831
1.3645	0.8931	9.0705
0.7573	0.8578	9.7722
1.0774	0.9996	9.2386
1.1019	0.6796	9.6269
1.0253	0.9296	9.5455
0.8034	1.0469	9.4199
1.1468	0.8369	9.6293
0.8088	0.9924	9.6849
0.8297	0.7388	9.8584
1.1844	0.8351	9.2680
0.9392	1.0839	9.5042
0.7190	0.8429	9.6299
1.2909	0.8632	9.3960
0.9733	0.6347	9.9762
1.0355	0.6825	9.4887
1.3657	1.0594	8.9994
1.0971	0.9876	9.4995
1.1228	0.9170	9.1118
1.2993	0.5659	9.1208
1.2676	0.6485	9.6023
0.8183	0.9111	9.3966
1.2736	0.5599	9.5108
0.9799	1.1934	9.5611
0.4672	0.9344	9.2027
1.1336	1.0181	9.1399
0.7137	1.0690	9.5623
0.5480	0.5306	9.7645
1.3501	0.9487	9.2129
1.0415	1.1067	9.4785
0.9416	1.0068	9.2093
1.0157	1.2598	9.1310
0.8387	0.8913	9.9128
1.1156	0.7011	9.3589
1.1557	0.5689	9.3714
1.0319	0.8273	9.5072
1.0654	1.1031	9.3284
1.0929	0.7699	9.1974
0.7968	0.6975	9.7812
0.7824	0.6197	9.4085
1.1647	0.8979	9.1669
0.7292	0.8130	9.5258
0.9284	1.0504	9.1256
1.1168	1.1258	9.2368
0.5037	0.5342	9.4929
1.2239	1.1396	9.1663
0.8321	0.7388	9.5844
0.6652	0.8973	9.5982
1.1168	1.2778	9.3302
0.8985	0.2734	10.0857
1.0385	0.4827	9.3702
1.0971	1.1240	9.2799
1.0331	0.3823	9.7519
0.8716	0.7466	9.7346
1.1575	0.9248	9.5551
1.1958	0.2925	9.7118
0.6203	0.5653	9.8889
1.3190	0.7472	9.5246
1.0594	0.6736	9.7794
0.3505	0.7956	9.8147
1.3166	1.0229	9.7824
1.1133	0.2572	9.6598
0.7250	0.7119	9.8410
1.2473	0.9655	9.7429
1.3274	0.7143	9.8021
0.8315	0.8189	9.8165
1.0714	0.7358	9.8632
1.4686	0.7777	9.7082
0.9218	0.6467	10.1198
1.2993	0.6909	10.1216
1.2455	1.3095	9.8368
0.6933	0.6897	10.0061
1.4058	0.6873	9.6849
1.0475	0.5635	9.8638
0.6670	0.3194	9.9589
1.3663	0.8752	9.4366
1.0247	0.9595	9.7483
0.8297	0.6808	9.4534
1.3238	0.7286	9.1639
1.3143	1.1139	9.6616
0.8357	0.5282	9.1860
1.4153	0.5145	9.1681
1.1695	1.2149	8.7804
0.5049	0.7681	8.5268
1.0247	0.7531	8.5011
0.7884	1.0157	8.9503
0.7926	0.4433	9.3367
0.9206	0.9260	9.0568
0.9577	0.9230	9.3009
0.9547	0.9039	8.7816
0.6885	1.0774	8.7750
0.5809	0.9864	9.3535
1.2945	0.8441	8.9324
0.9170	0.3081	9.2213
0.7866	0.7681	8.7535
0.9434	1.3466	8.4496
0.8530	1.1049	9.1238
0.7777	0.6802	9.2315
0.9948	0.8883	9.2171
1.2760	0.3817	8.9449
0.5940	0.7627	9.1698
0.9906	1.1731	9.1651
1.1491	0.9045	9.6568
0.4983	0.4373	9.8961
1.2030	0.6616	9.6287
1.1659	0.5145	9.8309
0.5707	0.6742	9.5772
1.2508	1.0104	9.7340
1.3609	1.2682	9.7011
0.5300	0.7753	9.7238
1.5230	0.2231	10.0492
1.6486	1.3107	9.1950
0.4977	0.8136	9.5234
0.9487	0.7166	9.7256
1.1791	1.5667	9.4079
0.6209	0.2106	9.8087
1.1994	0.4804	9.6735
0.9894	1.1539	9.2799
0.9487	0.4169	9.5108
1.2688	0.7160	9.1519
0.4074	1.2939	9.4923
1.0905	0.5545	9.4923
1.0319	0.5318	9.3122
0.8823	0.9679	9.3230
1.2784	0.8698	9.4187
0.9757	0.7071	9.1340
0.9601	0.6999	9.9188
1.2066	0.7489	9.5712
1.0528	0.3290	9.4785
0.8800	0.3984	10.0773
0.9930	0.7693	9.6903
1.0576	1.0750	9.3690
0.7346	0.6287	10.1042
1.1085	0.6790	9.5635
0.9745	0.8082	9.6185
0.8818	0.6532	9.8799
1.2311	1.0283	9.5240
1.2706	1.0744	9.6137
0.6670	0.7484	9.7896
1.0522	0.3643	9.7591
1.4345	0.6951	9.6053
0.7454	0.7095	9.6831
1.1503	0.4780	9.1836
0.9350	1.3645	9.3134
0.8895	0.6796	9.0759
1.1360	0.6987	9.1609
0.7753	0.9984	9.4289
0.7729	0.7424	9.1328
1.1695	0.9882	9.4301
0.7274	1.1168	9.2470
0.9745	1.1707	9.3080
1.0492	0.4229	9.7848
0.8279	0.6634	9.6789
0.9135	1.0331	9.4103
1.2126	0.5731	9.9116
0.5551	0.7878	9.5677
0.9452	0.6760	9.7357
1.2395	0.7322	9.8889
0.5874	0.8483	9.9104
1.3848	0.4457	9.9720
1.5583	0.9380	9.4462
0.4433	0.9817	9.5180
1.3998	0.5432	9.5491
1.3089	0.9966	9.3200
0.7430	0.5210	9.2805
1.4231	0.4947	9.3780
0.8518	1.1139	9.1687
1.2060	0.8315	9.1872
1.1318	0.3625	9.6795
0.7005	1.1222	9.0735
1.1689	0.6951	9.3535
0.9505	0.4935	9.4899
0.6550	1.2431	9.3284
1.2060	0.8500	9.7238
1.1689	0.6903	9.3367
0.5503	0.6156	9.7908
1.0044	0.4463	9.8380
1.1300	1.3412	9.3846
0.4744	0.5815	9.8027
1.2903	0.4917	9.7369
1.1031	1.4560	9.1208
0.8130	0.5551	9.2452
1.1073	0.4804	9.3475
1.1838	1.2640	9.2464
1.5170	0.7783	9.2632
1.0385	0.5515	9.3876
0.9105	0.7501	9.4414
1.2736	0.9679	9.2985
0.7478	0.4415	9.7220
0.7651	0.7304	10.1395
1.0044	0.6508	9.7728
1.0134	0.4845	9.6023
0.5049	0.9553	10.0492
0.9822	0.8829	9.4648
1.2490	1.1677	9.8739
0.7412	0.6885	9.8961
1.3346	0.6820	9.5509
1.1396	0.9129	9.6251
0.6676	0.8082	9.0939
0.9846	0.7771	9.2865
0.8494	0.9057	9.4031
0.7071	0.4086	9.2219
0.8159	0.5815	9.6933
0.7878	1.0558	9.4265
0.8937	0.9775	8.8995
0.9619	0.6843	9.7513
0.7585	0.7807	9.7226
1.2006	0.8399	9.6388
1.1946	0.7926	10.1988
0.6185	0.7406	9.5120
1.5015	0.5970	9.8392
1.0642	1.1168	9.2596
0.3464	1.1910	9.1878
1.1366	0.7304	9.6335
0.9876	1.1480	9.5102
1.0163	0.9302	9.5270
1.1246	0.1166	10.3016
0.8548	0.7747	9.6382
0.8865	0.7735	9.6496
0.9398	0.2243	9.5623
0.5067	1.1180	9.4247
0.8243	0.2052	9.9302
1.5900	0.5569	9.4139
0.3380	1.0032	9.8793
1.2149	0.5653	9.5808
1.2831	1.1061	9.7238
0.6257	0.3117	9.8955
1.7001	0.3894	9.8470
0.7705	0.9924	9.3068
0.7507	0.9374	9.2051
1.2849	0.6568	9.2045
0.7322	0.9308	9.5060
1.1300	0.5844	9.2225
1.1432	0.8243	9.5982
0.7860	0.7621	9.7357
1.0917	0.7442	9.0538
1.0570	0.9984	9.5545
0.5073	0.7771	9.8093
1.2718	0.4917	9.6275
0.9081	0.9978	10.2305
0.7238	0.7801	9.7519
1.3926	0.9087	9.6323
0.9589	0.8895	9.6837
1.1653	0.8261	9.4845
1.1904	0.7172	9.3152
0.5432	0.8076	9.8602
1.2024	0.9147	8.9090
1.1007	0.4875	9.3768
0.8566	0.9487	8.7541
1.2042	0.9386	9.0233
0.8991	0.6616	8.9988
0.6437	1.1426	8.9419
1.3579	0.2177	9.5964
1.3950	0.7795	9.5515
0.7555	1.1605	9.4211
1.3316	0.3607	9.8781
1.0092	1.1156	9.3619
0.8590	0.6658	9.3062
1.3717	0.6640	9.8386
0.3864	1.0534	9.1992
0.9368	0.5133	9.5162
1.5182	0.8722	9.1950
0.5749	0.8471	9.6945
1.3848	0.6054	9.8111
1.0935	1.2036	9.6879
0.5360	0.3069	9.7968
1.4142	0.3416	9.8075
0.6790	1.0044	9.6999
0.6760	0.7920	9.5336
1.2179	0.7896	9.3661
0.4792	0.5629	10.0432
1.2945	0.2530	9.6628
1.1079	1.2233	9.7208
0.5695	0.7663	10.0695
1.6271	0.6562	9.4701
1.0265	0.8333	9.6137
0.9296	0.3942	9.7501
1.2574	0.9344	9.0275
0.8608	0.9410	9.6299
1.1539	0.7304	9.1058
1.0271	0.3344	9.6035
0.6556	0.6485	9.3260
1.2126	0.9147	9.0927
1.1049	0.5384	10.0474
0.6933	0.8566	10.1772
1.2670	0.6730	9.8829
1.0325	0.7424	10.4380
0.5850	0.8183	9.7232
1.3298	0.6185	9.6711
0.7651	1.0307	9.8446
0.8213	0.8806	9.3583
1.1025	0.7328	9.9164
0.7131	0.9511	9.2721
1.0151	0.7059	9.3684
1.1462	0.6951	9.8703
0.8279	0.8919	9.5042
1.3412	0.5174	9.3667
1.1330	0.9302	9.5874
0.7101	1.1826	9.0107
1.3160	0.6778	9.5001
1.0337	0.9344	9.3702
0.8052	0.8614	9.7872
1.1360	0.4008	9.9613
0.5294	1.2556	8.9336
0.7711	0.2118	9.6233
1.3747	1.2173	9.7435
0.2435	1.2419	9.9798
1.1551	0.4929	9.7669
0.9793	1.4201	9.3308
0.5868	0.4283	9.9625
1.4034	0.8596	9.3350
0.9799	0.9529	8.8570
0.8752	0.9236	8.7230
1.3501	0.7603	8.5501
0.5426	0.9864	9.2961
1.2933	0.4708	8.7487
1.2508	0.7777	9.2943
0.4205	0.4792	9.6101
1.7874	0.3966	9.0574
1.1091	1.3388	9.5964
0.8237	0.4995	9.6329
1.6044	0.9828	9.1489
0.6257	0.7830	9.7423
1.2903	0.7789	8.8773
1.2126	0.7478	9.7346
0.4128	0.7807	9.4438
1.5757	0.8578	9.4654
0.7214	0.6784	9.7166
0.5982	0.7705	9.9427
1.5942	0.3206	9.4684
0.9117	0.9978	9.5347
1.0612	0.8387	8.9431
1.0558	0.6933	9.7058
0.7717	1.3089	9.1860
0.7603	0.4349	9.4743
1.1575	0.6760	9.7543
0.4217	0.8118	9.2135
1.1797	0.2106	9.4271
1.3268	1.4303	8.7924
0.3159	0.3290	9.8207
1.7635	0.3386	9.3822
1.2257	1.1809	9.5389
0.9685	0.1669	9.2967
1.4542	0.7466	9.3409
0.5025	0.8321	9.5312
1.3017	0.8249	8.8719
1.5021	0.6006	9.2327
0.2142	0.3547	9.7776
1.6696	0.4475	9.3726
0.6138	1.5595	9.7836
0.4851	0.7149	9.9541
1.0792	1.0810	9.4468
0.1555	0.6784	9.6221
0.6814	1.1228	8.8516
0.8165	0.6473	9.6717
0.1807	1.1689	9.5581
1.3418	0.7286	9.5587
0.8710	1.2275	9.6592
0.6221	1.3232	9.2943
1.0421	0.3978	9.7537
1.1420	1.0128	9.6538
1.0804	0.2112	9.7136
1.2604	0.6096	9.2351
1.4034	1.4919	9.2482
0.6724	0.4475	8.9778
1.6169	1.3071	8.6757
0.4205	0.7029	9.4737
1.7982	0.0473	9.5617
1.6056	0.7597	9.1369
0.5336	0.3936	9.7148
1.6833	1.0391	9.0125
0.5934	1.0038	9.7633
0.9577	0.8488	9.2823
1.6259	0.3852	9.6472
0.4110	0.6467	9.5030
1.3340	0.5623	9.3439
1.1976	0.7711	9.3367
0.4373	1.0534	9.3780
1.2784	0.6263	9.3810
0.4947	1.2066	9.9278
0.8028	0.8351	9.3565
0.5707	0.8483	10.0737
0.3338	1.3436	9.1262
0.5575	0.9643	9.7405
0.9188	0.9087	9.4588
0.3458	0.7501	9.5988
1.1174	0.1466	9.6460
1.1623	1.6110	9.2225
0.4845	0.5450	9.5712
1.8269	0.4522	9.2021
1.1701	0.9069	9.4576
1.3220	0.2279	9.4408
1.9669	0.4277	9.2004
0.8393	0.2100	9.7854
1.7677	0.2495	9.1567
1.3125	0.8136	9.5449
0.1699	0.1543	9.9236
1.5296	0.6502	9.1657
0.7190	0.6018	10.0546
1.2927	0.7220	9.7328
1.0935	0.7448	10.0995
0.3936	0.9799	9.9020
0.9416	0.8602	9.4289
0.7639	1.2209	9.7328
0.2154	1.3687	9.9559
0.7507	0.7202	9.8111
0.7489	1.2921	9.9026
0.8596	0.7813	9.5007
1.1234	1.0857	9.3523
0.6975	1.2036	9.4325
1.1330	0.2602	9.0789
1.4614	0.7741	9.1597
0.9793	0.6341	9.3894
1.8287	0.2961	9.3463
1.5422	0.7609	9.3577
0.9499	0.6197	9.5653
1.5846	0.7914	9.0029
0.6443	0.7609	9.6705
1.1288	0.3984	9.5718
1.3513	0.5282	9.9649
0.0269	0.6467	9.6233
1.3154	1.3148	9.0490
0.9643	1.4255	10.1228
0.3380	0.9679	10.1018
1.3059	0.9625	9.9254
0.4205	1.0361	9.8171
0.9224	1.7162	8.7517
0.9057	0.9290	9.4857
0.3164	1.3370	9.3774
1.2215	0.1675	9.4821
1.0612	0.8351	9.4468
1.1838	0.5892	9.1357
1.1162	0.1107	9.7040
1.0522	1.2700	9.2883
1.0911	0.5563	9.3655
1.7198	0.3374	9.2907
1.0319	0.7352	9.2739
1.2281	0.1029	9.7040
1.6151	1.0881	8.9623
0.8644	0.4798	9.9236
1.4979	0.5438	9.4145
0.8512	0.8518	9.7639
0.6514	0.4134	9.3673
1.2885	0.6628	9.7591
-0.2985	0.7376	10.0701
1.2467	0.7328	9.5090
0.8841	1.5667	9.5677
0.0772	0.8937	9.9900
1.3633	0.6568	9.3200
0.5635	0.9793	9.6490
0.5874	0.8782	9.0035
1.4494	0.8829	9.6095
0.1388	0.6419	9.3990
1.3196	0.9188	9.0658
0.8596	0.9398	9.6765
0.5791	0.8100	9.7926
1.6217	0.0042	10.1282
0.7998	1.1198	9.5772
1.1462	1.2419	8.9078
0.9715	0.4690	9.6341
0.4827	1.2843	9.2524
1.1456	0.2806	9.8500
0.9493	1.1773	9.7932
0.8327	0.8524	9.5330
1.2975	0.4959	9.6209
0.8716	1.6397	8.9940
0.7591	0.6126	9.5048
1.2945	0.5575	9.3553
0.5809	0.9170	9.5569
1.3418	0.0891	9.2733
1.3340	1.3938	9.0711
0.5192	0.7513	9.9367
1.3322	0.8518	9.5503
1.1252	1.2329	9.6562
0.8746	0.3087	9.6137
1.6798	1.0265	9.3894
0.0066	1.0522	9.7465
1.4931	0.5001	9.6951
1.1826	1.1832	9.4761
0.0449	0.6078	9.7334
1.6696	0.9918	8.8977
0.2303	1.2066	9.8584
0.9350	1.0337	9.4779
1.2646	1.0235	9.8195
0.4313	1.1121	9.4624
1.6175	0.3230	9.6993
1.0427	0.5336	9.7005
1.4189	1.2670	9.2656
1.3741	0.0299	10.0169
0.7813	0.4726	9.4510
1.1216	0.4433	9.4450
1.2813	0.6820	9.3332
0.5749	0.9787	9.6041
1.1874	0.2471	9.8416
1.2413	1.3340	9.5515
1.1862	0.6054	9.8123
1.6253	0.4959	9.9314
0.7519	1.2257	9.4121
1.1964	0.2112	9.7028
1.2664	1.0373	9.0215
0.4337	0.4014	9.9308
1.5003	0.3763	9.2099
1.0780	1.0947	9.9529
0.6419	0.7346	9.4761
1.3950	1.1952	9.3254
0.1938	0.6909	9.9469
1.2598	0.3517	9.4426
1.2024	0.9661	9.6275
0.7687	0.6550	9.5001
1.6044	0.6467	9.5898
0.4528	0.9260	9.0981
0.8375	0.7448	9.0580
1.1707	0.6281	9.6077
0.2931	0.7848	10.0947
1.4297	0.4295	9.4103
0.5946	1.4680	9.9948
0.4792	1.1342	8.9569
1.0941	0.8142	9.7435
0.3523	1.1007	9.6311
1.3148	0.5952	9.9804
1.2383	0.6897	9.9134
0.7854	1.3483	9.0682
1.3645	0.5462	9.3732
0.8650	1.0032	9.2925
1.1575	0.6197	9.4289
1.3932	0.1184	9.9332
0.6078	0.9930	9.3385
1.3382	0.0138	9.6873
1.4973	1.1001	9.4103
0.6760	0.5270	9.6765
1.2407	0.2321	9.5024
0.6748	1.2855	8.7960
0.5689	0.5964	9.4031
1.3992	0.7711	9.2680
0.1543	1.0576	9.9338
1.3406	0.7292	9.5312
0.6742	1.8628	9.1932
0.5354	0.7244	9.6514
1.3489	0.8566	9.8847
0.3882	0.8536	9.9278
0.9583	0.3643	9.7118
1.3968	1.1156	9.2913
0.0718	0.9141	9.7064
1.6863	0.2608	9.2482
0.6233	0.7950	9.4390
0.8758	0.2835	9.6023
1.8724	0.6879	9.4277
0.2979	0.5791	9.9900
1.4943	0.7023	9.6586
0.6939	0.9787	9.7890
0.6323	0.5252	9.4055
1.4782	0.5438	9.8081
0.6299	0.8405	9.7537
1.1468	0.9739	9.2434
1.0570	1.1115	9.5629
0.1765	1.1749	9.6149
1.4668	0.4612	9.2345
0.3135	0.7071	9.4701
0.8333	1.0516	9.0317
1.5583	0.7896	9.5485
0.3649	0.9960	9.5724
1.4136	0.5605	9.6352
0.8453	1.0098	9.0012
0.9631	0.8608	8.9072
1.2060	0.1340	9.9200
1.1456	1.3717	9.5377
0.9906	0.4941	9.2811
1.3824	0.4008	9.3894
0.4857	1.1958	9.3696
1.1749	0.3793	9.3643
1.1952	1.4829	8.9868
0.3422	0.6173	9.4893
1.4614	0.8399	9.7764
0.6544	1.1635	10.0271
0.9009	0.8034	9.6526
1.1719	1.7509	9.2285
0.3547	0.8483	10.0444
1.5452	0.2315	9.9373
0.8279	0.7795	9.9152
0.7208	0.4283	9.5342
1.5027	0.7322	9.3906
0.2877	0.7693	9.3110
1.6092	0.3087	9.1375
1.6122	0.6820	9.3074
0.7567	0.2806	9.8578
1.6851	0.9541	9.3750
0.7346	0.7579	9.4277
1.3154	0.9338	9.3355
1.3208	0.8949	9.6448
0.3703	0.5821	10.0594
1.5296	0.5629	9.5611
0.7035	1.0666	9.5826
0.8758	0.8459	9.3936
1.3890	0.9613	9.6568
0.1627	0.8064	9.5234
1.4811	0.5450	9.2949
0.8674	1.1168	9.2997
0.6993	0.8405	9.2829
1.1958	0.8004	9.5228
0.7310	0.8800	9.4037
1.1611	1.0750	9.1698
1.1318	0.9446	9.1435
0.5635	1.2227	9.5694
1.0062	0.0981	9.9409
0.8052	1.2287	9.2572
0.8136	0.5503	9.1561
1.4800	0.9374	9.1525
0.6138	1.4536	8.8809
1.1970	0.1280	9.6017
1.2694	1.0959	8.9868
0.4427	0.3763	9.8416
1.2431	0.4331	9.4851
0.9045	0.8973	9.5258
0.9254	0.8704	9.3948
1.3220	1.1497	9.0855
0.4427	0.6389	10.0594
1.4632	0.5390	9.8793
1.1079	1.0528	9.8362
0.8213	0.5384	9.5413
1.3346	1.0750	9.3930
0.0281	1.1426	9.5228
0.8010	0.6467	9.5210
0.8770	0.7878	9.3996
0.0640	0.6796	9.9332
1.4016	0.7101	9.5018
-0.0784	1.0128	9.5910
1.1480	1.0217	9.0125
1.0397	0.7400	9.6622
0.5659	0.8494	10.0845
1.6744	0.2405	9.5832
0.7023	1.0050	9.7340
1.4602	0.6167	8.9808
1.3890	0.5204	9.7220
0.5629	1.1581	9.5509
1.4806	0.1842	9.2362
0.7250	0.8812	9.4737
1.2473	0.1585	9.6646
1.4130	0.5109	9.8093
0.8447	1.4106	9.3499
1.0092	0.7525	9.1800
1.0762	0.8142	9.4761
0.8788	0.9141	9.5539
1.0911	0.3852	9.9003
1.1222	1.3489	9.3601
0.7543	0.3170	9.5754
1.4901	0.6712	9.3415
0.4642	1.0092	9.6095
1.4106	0.1382	9.5228
1.3872	0.9523	9.1944
0.9846	0.1902	9.3296
1.7593	0.5366	9.1531
0.8566	1.0403	9.1537
1.3860	0.7382	9.0065
1.5876	0.6760	9.3308
0.5928	0.8536	9.8213
1.9107	0.1621	9.4480
0.9529	1.4722	9.4642
1.6469	0.8644	8.7816
1.3615	0.9589	9.3786
0.7238	1.2353	9.5479
1.5105	0.4116	9.6903
1.2102	0.7531	9.4815
1.1767	0.4732	9.5515
1.4578	0.2955	9.6293
1.0086	1.3382	9.1238
1.0564	0.3924	9.2207
1.4859	0.6413	9.4319
0.8405	0.5581	9.9140
1.4393	-0.0538	9.4564
1.6433	1.6134	9.0556
1.0151	0.3673	9.1639
1.6331	0.7824	9.3361
1.1809	0.6963	9.7633
1.3178	0.3781	9.7136
1.9555	0.7107	9.2123
0.6156	0.4516	9.6107
1.6433	0.5701	9.0263
0.6024	1.1707	9.0616
0.7388	1.0475	8.9635
1.3059	0.5019	9.8853
0.2124	0.8483	9.9421
1.5517	0.6969	9.6209
0.9577	1.3238	9.7872
0.5450	1.2975	9.0006
1.1521	0.8925	9.6777
0.6544	0.8608	9.9104
1.2161	0.4379	9.6729
1.1186	0.6197	9.9032
0.3488	1.0624	9.6125
1.0343	0.1842	9.6867
0.6538	1.2203	9.2542
0.7842	0.9051	8.9138
1.2879	0.4726	9.4989
1.1067	0.9434	9.0382
0.8967	0.4008	9.9176
1.4794	1.3980	9.3080
0.3912	0.4558	9.2542
1.1976	0.5611	9.8769
0.7418	0.5462	9.8285
0.5444	0.3553	10.0055
1.4040	0.9428	9.5030
0.2195	0.7178	10.0085
1.1892	0.5408	9.7968
0.5994	1.4441	9.7962
0.6664	0.7968	9.9068
1.3382	0.3326	9.9505
0.2321	0.8788	10.0121
1.2520	0.9200	9.1447
0.6126	1.2825	9.1106
-0.0652	1.1916	9.3619
1.1779	0.4642	9.2745
0.3482	1.0875	9.3828
1.1916	1.0528	9.1842
1.1264	0.5898	9.3391
0.4726	1.1210	9.2183
1.1934	0.2518	9.6329
1.0618	1.2197	9.6616
0.9745	0.3589	9.8985
1.3394	0.3559	10.2454
0.9846	0.7155	10.0414
1.2538	0.2213	9.6765
1.2957	1.5081	9.3613
0.4175	0.7095	9.6173
1.3172	0.3332	9.5665
0.9601	0.8740	9.6239
1.0522	0.6496	9.5515
1.5332	0.9135	9.5784
0.3799	1.0642	9.7196
1.3860	0.9505	9.6059
1.0361	1.3543	9.8315
0.7304	0.4528	9.5802
1.4195	0.7992	9.9607
0.6556	0.7442	9.6849
1.2796	1.0134	9.2560
0.9218	0.8112	9.6430
0.4415	0.8285	9.6538
1.3693	0.1232	9.9696
0.8877	0.6066	10.0510
1.2658	0.6323	9.7501
1.2873	0.2518	9.9577
0.8925	1.2311	9.3702
1.2215	0.6161	9.7190
1.2903	1.3394	9.3726
0.6688	0.4181	9.7322
1.3747	0.6796	9.6167
1.2849	1.0510	9.6568
1.1713	0.7460	9.3511
1.6175	1.0092	9.1537
0.6138	0.7352	9.3607
1.8975	0.2925	9.4809
1.5260	0.6814	9.7232
1.1192	0.5713	9.7866
2.0399	0.4612	9.3720
1.0409	0.8159	9.3338
1.4542	1.0026	8.9665
1.4853	0.5940	9.6281
0.9105	0.8339	9.4797
1.6857	0.5091	9.6867
1.3478	0.8339	9.5503
1.0971	1.0708	9.7980
1.6187	0.4881	9.8273
1.1886	0.9230	9.5796
1.4477	0.3230	9.4959
1.7198	0.5414	9.3786
0.5569	0.8853	9.4002
1.4447	0.7358	9.0490
1.4680	1.0606	9.2285
0.8931	0.6993	9.1770
1.9992	0.6317	9.2590
0.8524	0.6562	9.6604
1.4518	1.1952	8.9605
1.6134	0.8494	9.3403
1.0516	1.2443	9.2691
1.5099	0.4235	9.6670
1.5918	0.6808	9.8620
1.1593	0.5791	9.9750
1.9860	0.0491	9.2010
1.2090	0.9793	9.2051
1.0439	0.5809	9.0293
1.8831	0.8393	8.9013
0.8417	0.6604	9.1298
1.3495	0.8297	9.2440
1.4435	0.6395	9.4588
0.7950	1.2126	9.5204
1.9651	0.6598	9.8303
0.9655	1.1665	9.6442
1.3017	1.0265	9.2656
1.4171	0.3984	9.8141
0.7842	0.9966	9.7375
1.1192	0.6120	9.1573
1.2514	0.8261	9.1980
0.6987	0.9057	9.4803
1.5996	-0.0227	9.4450
1.3633	0.6132	9.6502
0.8494	0.6634	9.5054
1.5553	0.7047	9.3571
0.8351	0.8076	9.1710
1.4500	0.7651	9.0006
1.6463	0.7119	9.6089
1.0726	1.1599	9.3972
1.9824	0.4259	9.5904
1.5864	1.4165	9.4917
0.8782	0.6802	9.7597
1.4088	0.4959	9.4845
1.1300	1.2825	9.4372
1.1629	0.5701	9.1387
1.3208	0.6120	9.2901
0.6951	0.6161	9.6035
1.2993	0.7866	9.2596
1.2610	1.1659	9.5252
0.6030	0.5521	9.6107
1.5715	0.6377	9.9678
0.8758	0.7053	9.8889
1.2383	1.3454	9.0975
1.4566	1.0277	9.4833
0.6054	1.3424	9.2865
1.4776	0.4959	9.5491
1.1635	0.4774	9.8327
0.8435	0.8656	10.0360
1.3681	0.1238	9.6945
1.0451	1.0175	9.3906
0.6251	0.4947	9.0341
1.3298	0.5462	9.3062
0.2124	0.4487	9.5467
1.1156	0.3715	9.7435
1.3424	0.4337	9.4863
0.7926	0.9200	9.6741
1.7348	0.6455	9.6263
0.9918	1.3585	9.7465
1.1133	0.7143	9.3834
1.4764	0.4044	9.7256
0.6903	1.2090	9.5054
1.3262	0.7149	9.4043
1.1342	0.8967	9.2554
0.6664	0.8644	9.5054
1.3729	0.3248	9.6717
0.7328	1.0319	9.4390
0.5127	0.3224	9.7334
1.1707	0.8255	9.1716
0.7442	0.8273	9.6000
1.0301	0.2931	9.7872
1.5152	1.3256	9.8099
0.6305	0.3900	9.4582
1.6594	0.7430	9.4396
0.7651	0.8177	9.7286
1.0618	0.6215	9.1310
1.2132	0.8752	9.6329
0.7484	0.9135	9.4378
1.1832	0.4696	9.2757
1.0947	0.3494	9.6257
0.9164	1.1396	9.3296
1.4459	0.5366	9.5700
0.7298	1.3585	9.2315
0.7705	0.6903	9.4815
1.4548	0.8249	9.7776
0.7418	0.5497	9.7758
1.2502	0.6227	9.7591
1.3795	0.9559	9.4821
0.2297	0.6873	9.6065
1.5374	0.6843	9.3762
0.8165	1.0056	9.8931
1.3430	0.2985	9.4893
1.3286	0.4690	9.8434
0.7280	0.8704	9.6939
1.8377	0.6538	9.1453
1.4130	1.1946	8.9048
0.8064	1.1480	9.4420
1.4213	0.2674	9.3960
0.7029	1.3095	9.2225
1.1814	0.7962	9.3924
1.1922	0.8321	9.4014
0.7962	0.7717	9.9302
1.0110	0.3697	9.6185
1.4841	1.5721	9.5365
0.5910	0.2835	10.2197
1.2688	0.9811	9.7489
0.9464	0.7902	9.9445
0.7178	0.7454	9.5832
1.6516	0.7041	9.7549
0.0784	0.4457	9.6610
1.7862	-0.0030	9.7585
0.8315	0.7478	9.7340
0.9434	1.2825	9.1292
1.1677	0.7089	9.4474
0.5103	1.1725	9.2345
0.9936	0.8393	9.0006
1.2335	0.6287	9.2111
0.4528	1.1294	9.7328
1.1366	0.0999	9.6855
1.0187	1.0223	9.4636
0.7238	0.9595	9.0532
1.1360	0.9709	8.9611
0.4552	0.6921	9.6143
1.0235	0.5874	9.6430
1.2867	0.9230	9.9026
0.1705	0.7501	9.7465
1.4441	0.8411	9.6699
0.6317	0.7705	9.9900
0.9416	0.8076	9.4707
1.2532	0.5749	10.2011
0.5270	1.0546	9.7519
0.7621	0.5617	9.7316
0.8895	0.9386	9.6693
0.5988	1.2000	9.9332
1.1707	0.0820	9.9876
0.8967	0.6802	9.6424
0.5067	0.4283	9.4845
1.6307	0.7567	9.3870
0.1789	1.1898	9.2781
1.1743	0.8728	9.1740
0.9799	0.6066	9.4217
0.5001	0.6718	9.7088
1.5948	0.4026	9.4187
0.8267	1.2155	9.3972
1.0223	1.0062	9.4127
1.3268	0.6449	9.5312
0.8734	0.5904	9.9278
1.3705	0.2644	9.2883
1.5350	0.8459	9.6496
0.5222	0.7095	9.3673
1.7252	0.4887	9.4384
0.8183	0.8584	9.6921
1.2144	0.8411	9.3750
1.5224	0.5665	9.6083
0.7561	1.0229	9.5778
1.2784	0.6999	9.5342
1.5129	1.2490	9.5204
0.7848	0.7771	9.7429
1.5314	0.1603	10.0366
1.7503	0.5557	9.8877
1.0546	0.7412	9.3810
1.6331	0.8596	9.2799
0.8722	1.1007	9.3122
1.4991	0.7615	9.0783
1.5595	0.5151	9.7728
0.9727	0.9960	9.4097
1.6002	0.4289	9.6023
1.6032	1.5182	8.8857
0.8740	1.0433	9.5880
1.3262	0.3272	9.4695
1.3406	0.9697	9.7124
1.3466	0.8650	9.2237
1.7168	0.5103	9.4983
1.0648	0.9888	9.1938
1.9250	1.2323	9.0305
1.6738	0.6030	9.6412
1.1474	0.5767	9.5054
1.8203	0.5420	9.4600
1.5302	1.0582	8.9593
1.1641	0.7819	9.6909
1.3095	0.0766	9.8225
1.5230	0.6257	9.5395
1.2957	0.3374	9.2871
1.7731	-0.1095	9.7704
0.3380	0.9834	9.2129
1.5972	1.3812	9.4827
1.4088	0.7633	9.3086
1.1216	0.6766	9.6903
1.7426	0.5850	9.6047
1.5697	1.0439	9.7052
1.1701	1.8042	8.7720
1.2305	1.1091	9.3350
1.1366	1.0893	9.2530
0.8710	0.4409	9.5258
1.6504	0.3709	9.7118
0.7113	1.3089	9.1136
1.2257	1.2796	9.1710
0.8806	0.5474	9.7346
0.6849	0.8518	9.9792
1.1581	-0.1292	9.9224
1.5996	1.2449	9.8291
0.8692	1.0875	9.4881
1.3860	0.7813	9.3714
1.0002	1.2796	9.6789
1.4261	0.1286	9.3397
1.5332	0.4947	9.4558
1.4716	1.0690	9.1962
0.9063	1.3316	9.0640
1.2532	0.3954	9.1363
0.5360	1.2730	8.9108
1.8024	0.0209	9.1322
1.1336	0.4116	9.0574
0.7244	0.8566	9.2446
1.6534	0.8728	8.9545
0.4648	1.3507	9.3924
1.2855	1.0134	9.0341
1.1647	0.7448	9.3655
0.8189	0.8608	9.5246
0.6927	0.8859	9.7483
1.3615	1.0116	9.5449
0.5432	0.9033	9.5072
1.8981	0.2847	9.4678
0.4457	0.4660	9.5880
1.4225	0.6742	9.3487
0.8381	0.7484	9.4929
1.0594	1.0409	9.6053
1.0588	0.6975	9.8638
1.7438	0.4283	9.8638
0.5384	0.5886	9.4444
1.8610	0.8076	9.4049
0.9978	0.9320	9.7298
1.0265	0.6006	9.8141
1.4225	0.2752	10.1341
0.8423	0.5497	9.7603
0.7992	0.7872	9.9631
1.1725	0.7729	9.6711
0.0030	1.0851	9.5940
1.4853	0.4337	9.7346
1.0863	1.2251	9.5970
0.7998	0.7017	9.7453
1.2167	0.7155	9.6131
0.6682	1.3663	9.5347
0.9194	1.4913	9.1363
1.0642	0.0598	10.0642
0.5414	0.6024	9.8727
0.6748	0.0485	9.8434
1.0193	1.2323	9.3948
-0.3021	1.2855	9.4002
1.6241	0.1573	9.5294
0.4158	1.0750	9.8321
1.2526	0.9033	9.4983
0.6760	0.9679	9.7537
0.8339	1.1270	9.6406
0.5324	0.8004	9.7591
1.5751	0.5856	9.9158
0.3230	0.5145	9.6963
1.7252	0.3547	9.7950
0.7418	0.7047	9.7040
0.8213	0.7280	9.7603
1.4393	0.4445	10.1641
0.9141	0.5821	10.1533
0.8937	0.1783	9.8440
1.2790	0.7155	9.6544
0.7531	1.1791	9.1387
1.9316	0.7974	9.5611
1.3178	0.7723	9.7950
1.2999	0.3643	9.8775
1.4782	0.7071	9.9409
1.0821	0.8399	9.3589
1.0361	1.0409	9.2315
1.6469	0.5133	9.2763
0.9637	1.0319	9.5688
1.7228	0.0497	9.5892
1.3609	0.9111	9.1758
1.1127	0.7382	9.3511
1.6552	0.6502	9.7130
1.4662	0.7501	9.6933
1.1569	0.9308	9.2428
1.8221	0.4163	9.3984
1.1420	1.3944	8.8522
0.9960	1.0211	9.3529
1.9107	1.1605	9.1878
0.9434	0.4839	9.7698
2.0668	0.7166	9.4079
1.5057	0.9087	9.4516
0.9601	1.3902	9.0305
1.9119	0.7890	9.0113
1.4070	0.8991	9.5330
1.6750	0.1872	9.2010
1.3298	0.7310	9.0137
1.3430	0.8716	9.0496
1.2006	1.3274	8.0297
1.6732	0.6347	9.1896
1.1838	1.2580	9.0849
1.9310	0.1681	9.5700
1.6397	1.0576	9.2470
0.9613	1.1067	9.2739
1.6965	0.5904	9.3906
1.6839	0.9984	9.3266
1.2167	0.7717	9.1118
1.8670	0.5043	9.0424
1.0086	1.3358	8.5824
1.2490	1.0235	8.5734
1.4243	0.5958	9.6723
0.9691	0.5300	9.5820
1.1186	0.4104	9.4319
1.5607	0.4654	9.1818
0.6311	1.4704	8.9013
1.8030	0.7645	9.4241
1.4590	1.2138	9.4749
1.1474	0.3529	9.6699
1.7354	0.4642	9.5563
1.2496	1.1611	9.2686
1.2754	1.0498	8.9150
1.6259	0.3655	9.2315
1.0038	0.7196	9.3218
1.4686	0.6167	9.5084
1.1031	0.5575	9.1322
0.7561	0.8889	9.2751
1.3023	0.1531	9.4157
1.2909	0.3984	9.7058
0.6879	0.6407	9.5581
1.8149	0.3529	9.2668
0.4259	0.9739	9.1555
0.9918	0.8985	9.5659
1.1916	0.3888	9.6179
0.9840	0.6885	9.6430
1.1701	0.7160	9.4283
1.3549	0.9948	9.3320
0.8231	1.2102	9.3110
1.5105	0.6921	9.8075
1.2467	0.8632	9.6400
0.7513	0.5581	9.9696
1.5338	0.4750	9.7938
1.0122	0.9529	9.5742
0.5910	0.5551	9.9846
1.6415	0.6855	9.5078
0.8291	0.7501	9.6017
1.2419	0.6179	9.0646
1.0792	0.5659	9.0927
1.2132	1.3017	9.6687
1.5075	0.5462	9.7704
1.8012	0.6072	10.0229
0.8040	1.0068	9.3732
1.6612	0.7119	9.0801
1.1318	1.1294	9.2428
1.1031	0.8590	9.5724
1.2796	-0.0371	9.8871
1.3717	0.5426	9.7429
0.5910	0.3051	9.4899
1.6869	0.1268	9.8309
0.5491	1.1563	9.3589
1.2855	1.0050	8.9988
1.4512	0.4774	9.3690
1.0510	1.1222	9.3224
0.9188	0.6658	9.6323
1.4985	1.5787	9.6059
0.4881	1.3035	9.7680
1.6474	0.4648	9.9673
1.2108	0.7292	9.7340
0.9775	1.0804	9.7692
1.1527	0.5282	9.0233
1.1964	1.4841	9.0053
1.2796	0.2895	9.0873
1.4955	0.7346	9.5928
1.3603	0.5180	9.6849
1.1767	1.6642	8.7302
1.3346	0.3984	9.3332
0.7747	1.4841	9.3248
2.0213	-0.0664	9.7573
1.3101	0.6502	9.5114
1.0648	0.5671	9.2763
1.3525	0.9990	9.5521
1.4285	0.9924	9.6652
0.8788	0.5378	9.5222
1.6151	0.0766	9.2721
0.8447	1.1557	9.1220
0.7830	0.6670	8.8205
1.2036	0.8165	8.8767
1.1450	0.8835	9.0215
1.2132	1.0516	8.8420
1.1922	0.4092	8.8456
0.4893	1.8813	8.0237
1.2084	1.0552	8.0183
0.9996	1.0289	8.8953
0.7489	0.7681	9.3900
1.3190	0.4822	9.3625
0.6496	1.1061	8.9575
0.3799	1.7019	9.1232
1.3400	0.1172	8.8935
1.0463	0.8782	9.0855
0.8829	0.4881	9.3840
1.0331	0.4965	9.2620
0.9888	0.9452	8.5220
0.9493	1.2496	8.8109
1.5033	0.4062	9.3367
0.6329	0.9332	9.1884
1.5637	0.5803	8.7852
1.0606	0.6000	8.4849
0.8895	1.0193	8.7780
1.0971	0.4546	9.4343
1.5212	0.6006	9.6209
0.5067	0.3745	9.3284
1.4130	0.7693	9.3996
1.1635	1.0343	9.5730
0.8871	1.0193	9.9990
1.3322	0.0485	9.8907
1.1133	1.3238	9.4372
1.3525	0.5928	8.7607
1.0008	0.7992	9.3529
1.3741	0.8841	9.4743
1.6403	1.2084	9.0699
1.5051	0.2393	9.6598
1.0026	1.3346	9.1064
1.4136	0.9105	9.0795
0.9517	0.5025	9.2973
0.7555	0.6718	9.1692
1.4345	0.1639	9.5282
1.4447	1.0552	9.1501
0.2441	1.1910	8.9736
1.8425	0.4833	8.8965
0.6425	1.1444	9.0239
1.5266	0.2961	9.3230
0.8704	0.7723	8.9007
1.5805	1.0229	8.7547
0.6796	1.0654	8.8474
1.3454	0.4163	9.6873
0.7944	0.7238	9.2560
1.5123	0.7316	9.1369
0.7824	0.2895	9.1220
0.5545	1.4536	9.2392
0.8124	0.3344	9.7507
0.9679	0.7304	10.2460
0.6377	0.4110	9.4713
1.2311	0.9087	9.7788
1.1145	0.9338	9.4773
0.4827	1.4985	9.4851
1.4925	0.5180	9.8668
0.7077	1.3166	9.5473
1.0516	0.4881	9.2458
0.8806	1.0044	9.8315
0.3942	1.0235	9.5024
1.0445	0.8327	9.4749
1.1408	0.4510	10.0169
0.0778	0.9631	9.8991
1.1689	0.2692	9.3894
0.1693	0.9948	9.5359
0.3081	0.5653	9.2781
0.9254	0.1717	9.8165
1.1354	1.1228	9.6251
0.2417	0.7519	9.3535
0.9978	0.7974	9.2596
0.3936	1.3208	9.1489
1.2496	0.9655	9.0317
0.9511	0.4056	9.3864
1.1838	1.1731	9.2751
1.3172	1.1294	9.1974
1.6175	0.8327	9.3511
0.8231	1.2951	9.4558
1.6092	0.4522	9.8554
1.3250	0.4493	9.7154
0.4983	1.3872	9.7633
1.4255	0.2997	9.4713
0.8477	1.0074	10.0223
0.6215	-0.2225	9.6580
1.0469	0.5946	9.6544
0.8064	0.7280	9.4420
0.5791	1.2616	8.9760
1.0929	0.4750	9.3679
0.6431	1.1348	8.8672
1.1354	0.5222	9.1268
0.8907	0.7543	9.5144
0.7011	1.1342	9.0233
1.1964	0.8064	8.6117
1.1276	0.5599	8.7260
0.5785	1.1689	8.7499
1.5236	0.3984	8.5555
0.8393	0.9769	8.5710
0.7352	1.1886	8.3503
1.3238	0.5396	9.3284
1.5188	0.6742	9.6807
0.5928	1.0265	9.3840
1.4147	0.6628	9.5844
0.8171	1.1414	9.2213
0.9535	0.7340	9.5916
1.2287	0.2692	9.8141
0.9918	1.0421	9.7800
0.8943	0.2931	9.4079
1.2891	0.8225	9.4564
0.5486	0.7627	9.2919
1.1121	0.9117	9.7914
1.2066	0.5091	9.8327
0.8566	1.5535	9.7160
1.2808	0.5539	9.3457
0.9745	1.1892	10.0097
0.8626	0.3924	9.8075
1.1874	0.5049	9.9003
1.0756	0.9948	9.8416
0.2620	0.9942	9.5264
1.5230	0.2183	9.3511
0.8465	0.9655	9.5904
1.1019	0.5306	9.7573
1.1312	0.4211	9.7950
1.0385	1.3226	9.4438
1.0732	0.5294	9.6945
1.0349	0.4827	9.6454
1.0038	0.7896	9.6305
0.8895	1.4183	9.3607
1.0151	-0.0580	9.6053
0.4445	1.1725	9.3074
1.1785	0.6724	9.2063
1.0899	0.4977	9.3589
0.4313	0.9787	9.5970
1.1575	0.6754	10.1222
0.7543	0.7513	9.8476
0.5168	1.0026	9.5443
1.3328	0.1645	9.2267
0.9063	0.8136	9.8147
0.7274	0.6670	8.8008
1.0959	0.7920	9.0783
1.1013	0.9679	9.0903
0.7484	0.6538	9.2889
1.3113	0.4044	9.3439
0.9326	1.0235	9.5473
1.0463	1.0271	9.0113
0.9667	0.5862	9.5539
0.8704	1.3609	9.6891
1.3986	0.2967	9.7334
1.0211	0.4684	10.1455
0.8931	0.9799	9.3924
0.8512	1.3693	9.1950
1.1587	0.2692	9.5742
0.4295	1.0839	9.5958
1.6684	0.3840	9.9056
0.8847	0.6760	9.3487
0.6299	1.1396	9.2979
1.3711	0.0885	9.9170
1.1085	0.2459	9.8644
0.6467	0.7711	9.5712
1.5164	0.3248	9.6801
0.8058	0.8937	9.0023
0.8949	1.0169	9.4247
1.3717	0.3781	9.6903
0.7669	1.1067	9.6975
1.1731	1.0128	9.5850
0.9858	0.9482	9.6819
0.8626	0.8165	9.6035
1.1695	0.4487	9.8913
1.1420	0.6461	9.8943
0.5503	0.9876	9.5407
1.0768	0.7723	9.3673
0.7699	1.0558	9.6017
0.6634	0.7196	9.8368
1.1133	0.0837	10.0480
1.2622	1.3280	9.7633
0.2764	1.0110	9.3798
1.1785	0.4899	9.0933
0.9117	1.0911	9.7752
0.9547	0.3565	9.7405
1.2060	0.4283	9.7938
0.9745	1.3166	9.7698
1.0792	0.5491	9.4456
1.0762	0.1747	9.8955
1.0833	0.4690	9.4450
1.1097	1.0540	9.0394
1.0439	0.4798	9.1818
0.4588	1.4118	8.5585
1.1240	0.9631	8.1571
0.9703	0.4110	8.6524
1.0104	0.9960	8.6004
1.0983	0.8381	9.0664
1.0666	0.9817	9.0891
0.7657	0.8794	9.1334
1.3226	0.7137	9.0688
1.1785	0.5605	9.0747
0.6287	1.2933	9.5240
1.3460	0.4624	9.2829
0.7334	1.2335	9.6634
0.6945	0.5061	9.2739
1.2879	0.1430	9.4851
0.7262	0.8267	9.4157
0.7842	0.9075	9.3152
0.7944	0.5713	8.9772
1.0534	0.8991	9.4008
1.1820	0.6712	9.0550
1.2377	0.2016	9.0460
1.0032	1.2748	8.7936
1.1797	0.9446	8.5776
1.3382	0.6299	9.1764
1.0229	0.7071	8.6853
1.0738	1.1174	9.0849
1.1222	0.5934	8.9796
0.6024	1.6026	9.1399
1.1162	0.8279	9.7214
0.9882	0.3882	10.1593
1.1384	0.5031	9.6149
1.0977	1.0080	9.5270
0.8871	0.5545	9.4265
0.4738	1.2999	9.5688
1.3083	0.3141	9.3355
0.9781	0.7166	9.6562
0.7507	0.7771	9.2057
1.2048	0.2782	9.7124
1.2514	1.2144	9.3810
0.6311	0.7304	9.2129
1.4249	0.3942	9.2931
1.0062	1.0026	9.4887
0.6347	1.1743	9.3625
1.1204	0.6449	9.4444
1.0630	1.2772	9.5718
0.9464	0.4564	9.5336
1.2670	0.5773	8.7499
0.9039	1.2144	9.0861
0.7280	0.9721	8.3784
1.1922	0.4654	8.1391
0.8734	0.9206	8.2432
1.2365	0.7807	8.0907
0.8919	0.6622	8.3509
0.5551	1.2173	8.3036
1.2706	0.7974	8.5100
1.2365	0.4780	9.3930
0.9123	0.5474	9.5425
1.1049	0.7525	9.1854
1.0265	0.6526	9.2626
0.2602	1.1868	9.5365
1.6510	0.0257	9.5515
0.7005	1.5087	9.3529
0.8195	0.6825	9.0574
1.0457	0.4887	9.6514
1.1623	0.8189	9.7381
0.7866	0.4708	9.5916
1.6636	0.6173	9.6681
1.0325	1.1156	9.0867
0.8207	0.9308	9.5425
1.3478	0.5749	9.7926
1.0540	0.9595	9.8644
0.9541	0.9057	9.5653
1.1803	0.6825	9.6514
0.7878	1.0271	9.2207
1.0235	0.9152	8.8624
1.0385	0.6508	9.2865
0.8608	1.0660	8.9455
1.0235	0.5091	8.9431
0.8040	0.9589	8.8313
0.7196	0.9930	8.9437
1.0863	0.5821	8.8857
1.0343	0.4008	9.0903
0.5444	0.9978	9.4749
1.2120	0.6712	9.0251
0.8022	0.6831	9.3768
0.9338	1.1635	9.0616
1.4435	0.5509	9.9284
0.9356	0.6796	9.9056
0.7286	0.9709	9.7298
0.7711	0.5300	9.7866
1.2078	0.2136	9.6239
0.3918	1.0116	9.6490
1.4931	0.6425	9.6269
0.7615	0.9284	9.0161
0.6144	0.8279	9.2536
1.0510	0.3894	10.1288
1.5356	1.1222	9.7334
0.5958	0.2674	10.1826
1.8365	0.4564	9.4085
1.0463	1.2341	9.6382
0.7603	0.7938	10.0079
1.6385	0.0054	9.8530
1.2263	1.3460	9.4295
0.7854	0.3918	9.5629
0.9655	0.5916	8.8355
1.1438	0.9757	8.8109
1.0020	0.4457	9.4929
1.5793	0.7143	8.9276
0.9966	1.4273	9.2590
1.0546	1.0451	9.2135
0.8973	0.8656	8.8067
1.2161	1.0020	9.1082
0.8770	0.7023	8.9545
1.0774	0.7980	8.8600
0.5964	0.8560	8.8815
1.0307	1.2149	8.6099
0.8465	0.4612	9.3876
0.5671	1.2179	9.2572
1.1659	0.7160	9.5318
0.9505	0.9541	9.3128
0.7346	0.6885	9.4259
1.3430	0.3063	9.6143
1.0899	0.4032	9.6358
0.6215	1.1150	9.5569
1.0367	0.4313	9.1363
0.9493	0.4989	8.9533
0.6790	0.5982	9.1130
1.3561	0.3900	9.8356
1.4147	0.6054	9.4779
0.6718	1.1545	9.2721
1.0588	1.0391	9.1908
1.2437	0.7268	8.9318
0.8309	0.8668	9.9511
1.2778	0.5216	9.9822
1.0947	1.3860	9.8153
0.7083	0.5204	9.4354
1.0612	0.5061	9.4354
1.1773	0.5743	9.8099
0.5474	0.7615	10.0378
1.3489	0.3906	10.0755
0.4116	1.2604	9.7340
0.4875	0.5151	9.2171
1.1007	0.0879	9.8171
1.5505	0.8512	9.9732
0.0736	0.7418	9.7621
1.6439	0.7663	9.0424
0.7950	1.1378	9.0909
0.8333	0.6796	9.4199
1.0732	0.4283	9.4564
1.2227	1.3992	9.9098
0.7160	0.2782	9.8608
1.6636	0.8207	9.4157
1.3436	1.0283	9.7992
0.9434	0.9141	9.9637
1.7103	0.3996	9.7148
1.0205	1.4441	9.3924
0.7651	0.7160	8.9348
0.9948	0.7137	9.4217
0.9493	0.4337	9.2416
0.7495	0.7842	9.5617
1.1707	0.5139	8.6895
0.9039	1.1366	8.3545
0.7232	0.8363	8.4993
0.7047	0.4265	8.6919
1.1838	0.8728	9.1220
0.6179	0.9218	8.8522
1.3047	0.7789	9.0723
0.4995	0.8512	8.8684
0.8895	1.1186	8.8929
1.1288	0.6628	9.2321
0.6072	1.1874	9.2859
1.2933	0.5013	9.3212
1.0008	0.9679	9.2207
0.7095	0.6054	9.5671
1.3256	0.5647	9.8279
1.2084	0.4678	9.5976
0.5324	1.0911	9.2530
1.3711	0.7316	9.0035
0.8746	0.4756	9.0831
0.7729	0.9822	9.1369
0.8435	0.3817	9.1477
1.4961	0.7537	9.2931
0.2614	1.0146	9.3463
0.9984	1.0804	8.8821
1.0929	0.8991	9.2530
0.6096	0.8285	9.5922
1.2790	0.3817	9.7651
0.8387	0.8351	9.8889
0.6485	0.6401	9.3792
1.1079	0.5497	9.4684
1.2060	0.8877	9.6137
0.7083	0.6790	9.5491
1.4913	0.5545	9.2135
0.8788	1.2664	9.4157
0.9302	0.5994	9.2829
1.1234	0.4217	9.6221
1.5649	0.9924	9.5808
0.4528	0.5509	9.6017
1.7629	0.7543	9.1262
0.9470	0.9996	9.1806
1.1013	0.6760	9.5838
1.1497	0.5073	9.6759
1.2437	1.0947	9.8087
1.0935	0.2865	9.8757
0.7214	0.5378	9.7914
0.8076	0.7011	9.3583
0.8375	0.8734	9.3326
1.0953	0.2471	9.2482
0.5007	1.2598	9.0089
1.1689	0.8776	8.6566
0.8871	0.9266	8.7696
0.5276	1.2676	8.8163
0.9386	0.7466	9.5174
1.5380	0.4181	9.4384
0.5868	1.2532	9.2153
1.4249	0.6802	9.1052
1.0169	0.9021	8.7110
0.6407	1.0935	9.5892
1.2628	0.1322	9.9230
1.1426	0.9894	10.1862
0.7472	0.0479	9.7908
1.2179	0.6377	9.6233
1.1527	0.6072	9.7603
0.8698	0.5809	9.8494
1.4441	0.1268	9.9445
1.0618	1.0187	9.6496
0.8494	0.7119	9.5330
0.8339	0.5300	9.6801
0.6353	1.1474	9.1681
1.0116	0.7472	9.5228
1.1468	0.7693	9.4091
0.5121	1.2155	8.8552
1.0977	1.1976	8.8959
0.7609	0.6987	8.9712
0.6682	1.1204	9.4354
1.2682	0.2471	9.8518
1.3131	0.8841	9.8171
0.8429	0.5934	9.6472
1.3543	0.5563	10.0348
1.1294	0.7573	9.6933
0.9900	0.9416	9.9272
1.3394	0.0628	9.7525
1.0373	0.9302	10.0139
0.6580	0.4528	9.3744
0.9870	0.3559	9.5712
0.8052	1.1617	9.1657
0.8255	0.7789	9.1585
1.2574	0.6825	9.1567
0.8955	1.0929	8.9186
1.1049	1.2891	8.9048
0.9452	0.7388	9.0293
0.4977	1.4931	9.2410
1.2371	0.4271	9.9942
1.1485	0.9045	9.9421
0.5474	0.7304	9.6478
1.3478	0.7412	10.0313
0.8985	1.0439	9.8321
0.5186	0.9559	10.1120
1.5398	0.0957	9.7429
0.6778	0.8794	9.2398
1.1581	0.5432	9.0251
0.8255	0.4965	9.2805
0.7735	1.1970	8.9700
1.2377	0.3649	9.4630
1.3986	0.4439	9.6502
0.8213	0.9290	8.7948
1.0977	0.8973	8.7691
0.9571	0.4606	8.4891
0.3464	1.6373	8.5681
1.4895	0.7436	9.0969
1.1270	0.6317	8.5411
1.2227	0.8500	8.9102
1.5362	0.6167	9.0143
1.0630	1.2024	9.0119
0.6407	0.7442	8.9659
1.5984	0.3565	9.0616
0.7011	0.5761	8.7870
0.9960	0.8835	8.6709
1.2042	0.6000	9.3679
0.5695	1.0337	9.6490
1.2933	0.4678	9.3870
1.1336	0.4014	9.8476
0.5803	0.5976	9.7375
1.0714	0.4798	9.8560
0.9482	1.3818	9.4014
0.5605	1.1312	9.4115
1.3866	0.3649	9.1998
1.0265	0.9242	9.8183
1.0929	0.8853	9.4492
1.3597	0.7938	9.5539
1.0020	1.2616	9.6400
1.0911	1.0391	9.2285
1.2909	0.3123	9.9822
0.7872	0.5910	9.9044
1.0128	0.7089	9.6795
1.4285	0.4875	9.7866
0.2154	1.3651	9.0209
1.5164	0.1902	8.8127
1.0044	0.5557	9.1154
0.9649	0.8883	9.1770
1.2987	0.4522	9.5886
1.0349	1.0744	9.8129
0.5013	0.6072	9.7489
1.2706	0.7071	9.7567
0.6461	0.4092	9.6209
0.6138	0.7986	9.2697
1.1934	0.8076	9.2536
0.3021	1.3286	9.2494
1.1210	0.5115	9.0299
1.0989	1.0116	9.4761
0.7687	0.7160	9.6616
1.3507	0.5306	9.6604
0.8734	1.0732	9.9338
0.6837	0.6891	9.3170
1.5888	0.5707	9.4157
1.1300	0.5928	9.5347
1.0804	0.7244	9.4037
1.2921	0.6688	9.2925
0.6550	1.5326	9.0969
1.4895	0.5438	8.7637
1.1049	0.6622	9.2793
0.9864	0.7747	8.9389
1.4028	0.3763	9.4019
1.1533	0.7011	9.3577
0.5228	0.9152	8.8875
1.3771	0.3799	9.3990
0.7842	0.3356	9.5258
0.5904	0.6652	9.2255
1.1091	0.5988	8.8319
0.4887	0.9499	8.8337
1.3543	0.9954	8.3958
1.2114	0.5288	9.0353
0.8453	1.3705	8.8875
1.1659	0.8913	9.5431
1.0953	1.0582	9.9134
0.3470	1.0409	9.8261
1.1737	0.6479	9.7830
0.9733	0.6550	9.9355
0.6245	0.6490	9.6478
1.5069	0.3715	9.5677
0.8524	0.8638	9.6287
1.3633	0.8130	9.3451
1.1019	0.5587	9.7728
1.0804	1.1025	9.5970
1.1527	0.5629	9.8087
1.1767	0.8841	9.4923
0.7866	0.9834	9.0688
1.1222	0.2788	9.3122
1.3705	0.7980	9.5449
0.6502	0.6664	9.0592
1.3759	0.3075	9.1256
0.8650	0.7627	9.5509
0.5629	0.6909	9.1914
1.0128	0.6443	9.4199
0.8710	1.1426	9.5485
1.4578	0.6120	9.2123
1.0977	0.5934	9.5204
1.0098	1.1198	9.3852
1.1545	0.8058	9.5814
1.3531	0.6359	9.7794
0.5832	0.5109	9.6257
1.3334	0.2859	9.6921
0.8195	0.5282	10.0570
0.5468	1.0451	9.5964
1.2221	0.5031	8.9617
0.9368	0.9009	9.2913
1.3436	0.7047	9.1597
1.4351	0.5928	8.8947
0.8136	1.3190	9.5898
0.8818	0.6126	9.7286
0.9960	0.6808	9.9062
0.6167	0.4199	9.9290
1.0851	0.0353	9.3481
1.1198	0.9846	9.6281
0.2638	0.6443	9.2889
1.1850	0.7968	8.7810
1.1515	1.0851	9.7046
1.3328	0.5133	9.9397
1.2000	0.6825	9.7651
1.0684	1.0522	9.4564
1.0804	0.8800	8.9844
0.8530	0.5539	9.2919
0.6933	0.6766	9.1902
1.3238	-0.0030	9.4366
1.4758	0.5581	9.4893
0.4798	0.7005	9.0496
1.3621	1.1886	9.1238
0.8022	1.0971	9.6987
0.9589	0.6622	10.0402
1.0786	0.4636	9.4713
0.9422	1.0827	9.7196
1.0492	0.8943	9.0293
1.0265	0.8728	9.3984
0.6287	0.9224	9.3284
1.4554	0.4379	9.8596
1.0696	0.0987	10.0139
0.6897	1.0899	9.6795
1.1659	0.8800	9.1591
1.0451	1.2808	9.6849
0.9715	0.4211	9.5611
1.4273	0.4289	9.5712
1.1539	1.0044	9.7722
1.2796	0.9517	9.4642
0.7974	0.7495	9.4438
0.8279	0.9200	9.3409
0.9170	0.3673	9.4049
0.7992	0.0802	9.9128
0.5719	1.2963	9.5102
1.1234	0.4516	9.4666
0.8046	0.8985	9.7040
0.6203	0.6837	9.8105
1.4919	0.7304	9.8285
0.8578	1.1426	9.6358
0.7866	1.1336	9.8590
1.2544	0.9368	8.9994
0.8925	1.0540	8.6638
1.3047	0.9900	8.8725
1.4219	0.4086	9.6185
0.8118	1.1683	9.3529
1.3250	0.7795	9.9804
1.3418	0.7543	9.8751
0.5838	0.6185	9.7932
1.1474	0.1938	8.7433
1.1862	0.8363	8.2779
0.7137	0.6401	8.5710
1.3394	1.1797	9.0269
0.8638	0.9266	9.2345
0.9661	0.8130	9.4522
0.9517	0.4026	9.3732
0.4313	1.0576	9.3601
1.4578	0.3625	9.1812
0.5444	0.7801	9.3164
0.6365	0.9338	9.3978
1.4387	0.2064	9.9254
1.0786	0.8309	10.2831
0.9906	0.7208	9.3786
1.2754	1.3860	9.1830
1.0397	1.3202	9.1752
0.7884	0.7376	8.8803
1.4447	0.5563	9.6376
0.8961	1.0271	9.4791
1.4644	0.6084	9.5330
0.6688	0.9188	9.8135
0.8046	0.7280	9.6053
1.2622	0.1908	9.4701
0.7986	0.4193	9.5383
0.9003	0.6072	9.4977
1.4482	0.5025	9.3708
0.6251	1.0020	9.7860
0.8913	0.5432	9.7866
1.3627	1.1073	9.1704
0.5749	1.1940	8.8217
1.1880	0.8405	8.4699
0.9571	1.3370	8.6416
0.6927	0.6383	8.9557
1.0546	0.6054	9.3421
1.1288	0.6814	9.3667
0.5575	0.6825	9.4851
1.1414	0.5312	9.2584
0.5617	0.8411	8.9629
1.3125	1.1031	8.8498
1.2299	0.3906	9.5365
0.8620	0.8662	9.7746
1.2586	0.5432	9.7956
1.0492	1.2718	9.0460
0.6263	1.0528	8.9527
1.0965	0.5258	8.8151
0.8219	1.3107	9.0891
0.9721	0.2824	8.9461
0.7824	0.6658	9.2620
0.4235	1.0002	9.2303
1.1797	0.5133	9.0071
1.2664	0.4301	9.3092
0.5988	0.7184	9.3350
1.5535	0.9260	9.6077
0.8429	1.2413	9.1172
0.9093	0.5121	9.7130
1.4082	0.5282	10.1036
0.8752	0.9332	8.9730
1.0534	0.6221	9.0502
0.9188	0.7454	8.2109
0.3404	1.3753	8.1050
1.0385	0.8381	8.7972
1.0457	0.2160	8.7559
0.3799	0.5432	9.0233
1.8550	0.3763	9.0263
0.8052	1.0385	8.6171
0.7932	0.7268	8.6285
1.4333	1.2969	8.8468
1.0923	0.7047	9.3702
1.0140	0.1884	9.6394
1.6576	1.0917	9.7692
0.7340	1.1779	9.6311
1.3507	1.0660	9.7537
0.8913	0.3876	10.2466
0.7220	0.8662	9.5246
1.0528	0.3565	9.5090
0.6060	0.6407	9.6299
0.7244	0.8477	9.4390
0.9661	0.5342	9.8261
1.1031	0.4893	9.8656
0.8740	0.6843	8.8678
1.3125	0.4373	9.5228
0.7436	1.1234	9.4372
1.3460	0.5420	9.3738
1.1988	1.1527	9.2195
0.9906	0.7926	9.5922
1.1886	0.2818	9.4163
0.7125	1.4112	9.6352
1.0086	0.1328	9.8584
1.2293	0.7992	10.3202
0.5079	0.5270	9.8955
0.7519	0.8070	9.3565
0.8991	0.2680	9.4576
0.3900	0.8812	9.4420
1.1282	0.7890	9.9457
1.1982	0.4379	9.0616
0.9410	0.7795	9.9302
1.5625	0.2447	8.8265
0.7436	1.1689	8.5770
1.2425	1.3753	8.6279
1.2191	0.5683	8.5980
0.7836	1.1545	9.2715
0.8674	0.4594	8.8761
1.0804	0.3260	9.5132
0.5641	1.3448	9.1986
1.5667	0.6335	9.9230
0.5934	0.8901	10.0384
0.2016	0.1442	9.4576
1.1432	0.9942	9.6664
0.9272	1.0552	9.6945
0.9063	0.1149	9.7411
1.3735	1.4345	10.2059
1.2969	0.8195	9.2027
1.1976	0.8171	9.7692
1.6283	1.0110	9.5407
0.8632	1.1749	9.5084
1.9346	0.3105	9.4079
1.4309	1.0534	9.5617
0.6909	1.3489	9.3876
0.9852	0.2674	8.6213
0.6843	0.9278	9.3116
1.0624	0.7675	9.2135
1.2335	0.2620	9.3385
0.8829	0.7597	10.0761
0.9960	0.5587	8.9904
0.8572	1.1970	9.0065
0.4875	1.4919	8.8486
1.2819	0.1980	9.3290
0.8100	1.1767	9.3445
0.6197	0.7406	9.4468
1.2616	0.4768	9.3499
0.5061	1.3119	9.0353
1.1575	0.4385	9.3038
1.5266	0.5545	9.8452
0.2824	0.5773	9.0945
0.7125	0.5228	9.1549
1.3968	0.5928	9.1974
0.5719	0.8291	8.9156
1.7444	0.7777	9.1543
1.0008	0.3236	9.4594
0.8985	1.1731	8.6614
0.8859	0.7388	8.6949
1.1091	0.9344	8.1978
1.1061	0.9900	8.4382
1.5087	0.3266	8.5794
0.5617	1.7366	9.1842
1.0307	0.9577	8.6135
1.2443	0.4421	9.1274
1.0804	1.1701	9.4552
1.5769	0.1723	9.0251
1.4405	1.3974	9.3625
0.4217	0.6191	8.8522
1.5535	0.6257	9.0843
1.2120	0.7178	9.1130
1.1336	-0.0580	9.3379
1.4303	1.1988	9.4612
0.5821	0.8279	9.0065
1.0624	0.3159	9.3738
1.3346	0.6173	9.5766
1.0606	0.6921	9.0215
1.5787	0.7454	9.0460
0.9476	0.1962	9.4103
0.0682	1.2682	8.9216
0.9793	0.1848	8.9234
0.8955	0.3242	9.2452
0.0987	1.2849	8.8761
1.0122	0.2770	8.7415
0.2040	1.5027	9.3756
0.8961	0.2913	8.6548
0.6772	0.6102	8.4466
1.1683	1.0247	8.7481
0.7944	0.7585	8.4466
0.9009	1.3232	8.9671
0.4427	1.0971	8.0853
1.1946	0.6359	8.6464
1.5015	0.8578	8.5555
0.9924	0.6550	9.0556
1.8054	0.8471	9.3708
0.5462	0.7507	8.9120
0.8279	1.5123	8.3802
1.4811	0.4421	8.5812
0.7968	0.4313	8.4460
0.5174	1.7258	9.3732
1.1468	1.0175	9.3631
0.4845	0.6389	8.2049
1.3148	0.9499	8.5190
1.1396	0.5988	8.7541
0.8345	1.3466	9.0029
1.1617	0.6365	8.8971
1.2921	1.0953	9.3936
1.4734	0.5444	9.3290
0.9547	0.5204	8.8606
0.9123	1.6570	10.0552
0.9350	0.7352	8.9772
0.9487	0.0891	9.0921
1.2969	0.7944	8.7625
1.5535	0.5731	8.8438
1.4459	0.5246	9.3350
0.6239	1.3364	9.1208
1.6911	0.6526	8.8199
1.5691	0.7717	8.6805
0.9212	0.3200	8.7302
1.6110	1.0307	9.5718
0.7681	1.0169	9.1040
0.9272	0.2500	9.0538
1.8329	0.4259	9.5192
0.7549	0.7442	9.5527
1.1228	1.5416	10.0247
0.9458	0.4881	9.7686
0.7950	1.0833	9.1896
1.2772	1.1563	8.4281
1.3304	0.2758	9.2620
0.8082	1.7150	9.6275
1.0116	0.9386	9.5694
0.8130	0.8022	9.2081
0.6030	0.5121	9.9236
1.1868	0.0347	9.7974
0.6281	1.1103	10.2975
0.3954	0.4367	9.7902
0.7501	0.6173	9.5647
0.6281	0.7675	9.3451
0.6221	-0.2022	9.8961
0.9637	1.3645	9.9326
-0.0808	1.3071	9.4935
0.9912	0.2016	9.7824
1.1791	0.5294	9.7028
0.2835	0.6897	9.4319
1.1133	0.9487	9.8596
0.7101	1.4764	9.5599
0.8752	0.6778	9.1130
1.4136	0.6831	9.4731
1.4046	-0.0245	9.9487
0.9679	1.2484	9.8093
0.9057	0.4923	9.5324
0.7244	0.6401	9.5910
1.0044	0.3416	9.6113
0.9380	-0.0209	9.4265
1.0020	0.9607	9.7495
1.0062	0.4074	8.9120
0.9266	1.0911	9.0406
0.9978	1.2604	9.0610
1.5709	0.1041	8.9413
0.6173	1.5416	9.6293
0.6897	1.0744	8.9593
1.2036	0.5659	9.1525
0.8626	1.4267	9.2757
1.0313	-0.1621	9.0263
1.3442	1.0774	9.7728
0.4977	0.6867	9.0167
0.9858	0.4451	8.5064
1.3986	0.7352	9.1064
0.9278	0.4546	9.4887
1.5547	0.6825	9.6442
0.9876	1.1115	8.6111
1.2628	0.9308	9.0101
1.9525	0.7645	9.1962
0.7029	0.7262	9.2931
1.7479	1.1509	9.6538
1.1210	0.2919	8.8803
0.9482	0.7029	8.6566
1.6457	1.1605	8.5274
1.4261	0.1968	8.5848
0.4983	0.8871	8.7553
1.8873	0.2871	8.2426
1.3178	0.2656	8.4670
1.5458	1.1904	8.5046
1.4710	0.4660	8.9910
1.5236	0.9751	9.2183
1.9346	0.3894	8.6548
1.2790	0.5115	7.8628
1.5481	1.0026	8.2869
1.1767	0.9099	8.4592
1.3328	0.9200	8.8654
1.0528	0.8351	8.5358
1.4782	-0.0126	9.0807
1.1073	1.3202	9.2446
0.7011	0.4498	9.4325
1.4764	0.2327	9.7842
1.2837	0.9918	9.3194
0.8100	0.6042	9.4749
1.5553	0.7430	9.6376
0.8333	0.8901	9.8853
0.5324	1.2712	10.0725
0.6215	0.2728	9.3003
0.3715	0.5031	9.6317
0.4086	0.9787	9.5395
0.1454	0.3344	9.9134
0.0814	0.9918	10.0253
0.6544	0.4433	9.4079
0.3188	0.4977	9.2949
0.4343	1.4363	9.2159
0.8931	0.1795	9.2811
0.5970	1.1366	9.2291
1.1820	0.9793	8.9084
1.4506	0.6269	8.8773
1.2209	1.5087	8.4616
1.2335	0.9224	8.5944
1.6128	0.9027	9.4881
0.8309	0.7268	8.7822
1.0235	0.3063	8.6482
1.7204	0.9673	9.0891
0.2524	0.6096	8.8971
0.9637	0.5240	9.1429
1.0110	0.6915	8.7661
1.2120	0.3248	8.8851
1.2347	0.4337	9.2255
0.8859	1.2640	9.5760
1.2903	0.4433	9.7316
1.5176	0.7747	9.1519
0.9817	0.8016	9.1938
1.4776	1.4363	8.9904
1.1444	0.4516	9.4283
0.6449	1.0062	9.3906
1.4034	0.8183	8.5681
1.2939	0.1938	8.7116
0.7430	1.2808	9.0502
1.1605	0.4331	8.8372
1.2981	0.2752	9.7794
0.6927	0.3440	8.5734
1.6008	-0.0024	9.1669
1.8132	0.9033	9.3511
0.5832	0.4959	8.8731
1.1820	0.8225	8.9862
0.8315	1.7270	8.5029
1.0259	-0.1932	8.6434
1.0253	1.5069	9.4642
-0.0664	1.0205	8.9425
0.4606	0.4020	9.7686
0.2094	0.0586	9.3625
-0.0030	1.0839	8.1224
0.7346	1.1115	8.0548
0.2357	-0.1131	7.7389
-0.1376	1.3585	8.5543
0.8925	1.1079	8.6632
0.6933	0.5946	8.4287
1.0732	1.1880	8.8863
1.3956	0.6299	8.7098
1.6092	0.9051	9.3086
0.8429	0.5474	8.7936
1.8185	1.1222	8.9090
1.3160	0.9822	9.3373
0.8124	0.1346	9.0981
1.2359	0.8704	9.3355
0.9170	1.3759	9.1232
1.1426	-0.0706	9.0227
1.0780	0.7956	9.4989
1.1707	0.8255	9.2386
1.2849	0.8016	8.9216
0.8913	0.5001	9.6442
0.7178	1.4213	9.0837
1.5284	0.8608	9.0753
0.8758	-0.0837	9.1178
0.2776	1.5069	9.6490
0.9613	0.4822	9.6400
0.1986	0.8548	9.8416
0.4379	0.6173	9.3912
1.2993	0.4738	9.5850
0.7292	0.8381	9.5007
0.6987	0.5838	9.3702
1.2407	1.3143	9.9649
0.7113	1.1593	9.1160
0.8124	0.4295	9.4103
1.6235	0.8746	10.0468
0.5940	1.0941	9.4881
1.1348	1.4309	10.0462
1.1689	0.7214	9.5724
0.7860	0.8010	9.3643
1.5972	0.8632	9.0155
1.1485	0.3176	9.2333
1.0056	1.4279	9.0341
1.3998	0.8758	8.5363
1.2724	0.0909	9.4468
1.3460	0.4995	8.5262
1.4494	-0.0024	8.7481
1.2114	0.8877	9.3421
0.5450	0.2554	8.3772
0.9410	0.0766	8.4251
0.8273	1.2461	7.6899
0.9338	-0.1950	8.3377
0.7501	0.6592	8.9814
0.5563	1.0780	8.0470
1.0026	0.3410	8.8061
0.8614	0.5623	8.1373
0.6281	0.8554	8.1033
1.1491	1.3364	9.2799
0.6861	0.3565	8.6739
0.5521	1.6833	8.1661
1.1509	1.3878	7.7742
1.0110	0.2943	8.1415
1.2461	1.0504	9.0729
1.4883	0.2171	9.2315
1.2203	1.0116	9.1148
0.5575	0.7663	8.8049
1.7683	0.5390	9.1627
1.3824	1.0570	9.3248
0.9200	0.1370	9.5042
1.4429	0.9386	9.6957
0.8590	0.9499	8.7475
0.5426	0.4487	9.3661
1.6415	0.4792	9.5611
0.9787	1.2245	9.2165
1.0630	0.3045	9.7022
1.2000	0.3828	9.1357
0.2393	1.9717	9.2135
0.9948	0.4971	7.9130
0.5551	0.5474	8.1972
0.6778	1.1988	8.0817
0.7298	0.7412	8.4496
0.9529	0.8243	9.3667
0.4983	0.8100	8.3982
1.1856	1.1521	8.3150
1.6145	0.3374	8.1559
0.9224	0.9422	8.0542
1.2670	1.3340	8.5627
0.9978	1.0726	8.6428
0.7813	1.2305	9.1142
1.7527	0.6006	8.8049
1.1282	1.0630	9.0891
0.9709	1.2042	9.2440
0.7597	0.6700	9.3553
0.7651	1.5643	9.2644
0.5761	0.3446	9.4073
0.7621	0.2764	9.5736
0.4313	1.6522	9.4875
0.5683	0.1980	9.8010
1.1623	0.5222	9.7465
1.0062	0.9326	9.1465
1.3035	0.3739	9.1411
1.4638	0.6628	9.6903
0.8381	1.1186	9.4666
0.9733	0.8357	9.1974
1.0816	0.4044	9.4570
0.8518	0.6030	9.3278
1.1922	0.8231	9.0999
0.7627	0.8626	8.9036
0.9535	1.2317	9.3834
0.8746	0.5013	8.9958
0.9990	1.1599	9.3110
0.8231	1.0289	9.5491
1.1994	0.2028	9.3828
0.7298	1.3986	9.5330
0.7364	0.7262	8.9778
1.4273	-0.0634	9.9182
1.0899	0.4493	9.6257
0.8177	1.0128	9.1740
1.7174	0.4265	9.6616
0.9356	0.6455	9.5814
0.7190	0.8207	9.9242
1.3789	0.4941	9.4743
0.8518	0.5611	9.6867
0.9972	0.9834	10.0337
1.1240	0.3948	9.4546
1.0116	1.0863	9.7465
0.6449	0.5785	9.8398
1.2102	1.0151	9.4743
1.1695	0.9015	9.6652
0.9799	0.2106	9.3822
0.7747	1.2616	9.4372
1.0696	0.7687	9.3810
1.0175	0.4199	9.8021
0.8309	0.6885	9.5294
0.9152	1.3406	9.4235
0.9900	0.9314	9.3326
0.8716	0.0897	9.3020
0.8267	1.1306	9.4660
1.1677	0.7801	8.9952
1.0678	0.0473	8.9066
1.1791	1.1809	9.3182
1.1976	0.4660	9.1687
1.3382	0.7095	9.8374
0.4935	0.8483	9.5336
1.1725	1.0498	8.8259
1.0355	0.6808	8.9383
0.4128	0.7735	9.3547
0.9882	1.0654	9.6891
0.7041	0.2207	9.1968
0.4175	0.4947	10.3884
0.9852	0.6263	9.0592
0.6257	0.7489	8.8444
0.8453	1.4136	9.4127
0.9320	0.8028	9.1423
0.6221	1.0684	9.5659
0.6395	1.1503	9.5431
0.9691	0.2925	9.7136
1.4297	1.2167	9.5324
0.7854	0.6419	9.4151
1.3812	0.7041	10.0199
1.1809	0.3051	9.7998
0.8800	1.3489	9.5533
1.2933	0.7501	9.3505
1.2706	0.4152	9.6580
1.0582	0.9589	9.9876
1.6660	-0.0060	9.5282
1.2831	0.8339	10.1569
0.4570	0.5037	9.1244
1.1940	1.3137	8.9048
0.8548	1.1180	8.9443
0.6664	0.6281	9.4630
1.2849	0.9135	9.8093
1.3759	1.1803	9.5587
0.4391	0.9266	10.0205
1.1336	1.2987	9.7758
0.7424	1.2233	9.5282
0.7430	0.2865	9.5060
1.1533	0.3021	8.6111
1.3214	1.2784	9.0831
0.4307	0.2925	8.5322
1.5368	0.7495	8.6703
0.7998	1.1414	8.6775
1.2514	-0.0275	9.0137
1.8407	0.4911	9.2141
1.2173	0.7735	9.3637
1.0971	1.1964	9.4468
1.1976	0.5617	9.2572
1.0403	0.9362	8.9569
0.7741	0.5312	9.5108
1.4692	1.1109	9.3756
0.9607	1.2185	9.9290
0.7980	0.8273	9.8602
1.0074	0.8171	9.0430
1.0415	0.7657	9.3134
1.0684	0.6802	9.3667
0.7412	0.5958	9.1621
0.7286	1.5093	9.5090
0.5551	0.3709	9.3248
1.2335	0.5683	8.8971
1.2975	0.8776	9.5013
1.2048	0.5725	9.0406
1.4518	0.7376	8.5088
0.9182	0.7352	8.7505
0.8142	0.9236	8.7015
1.0355	1.0427	9.3355
0.7107	0.6933	9.5383
1.0576	0.7908	8.7535
0.9182	0.7681	9.2674
1.0337	0.8279	9.0604
0.8201	1.0151	9.1298
0.9278	0.9906	9.3679
1.0403	0.6873	9.6538
0.9302	0.7202	9.9290
0.8201	0.5557	9.5347
0.8291	0.8800	9.3744
1.0857	1.3310	8.7541
0.5025	0.5408	9.0137
0.6490	1.0439	9.3684
0.9888	0.5115	9.1878
1.2042	0.4923	9.4205
0.5216	0.6060	9.0957
1.3699	0.8381	8.5728
0.9051	0.5779	8.7092
0.4475	0.9081	8.5890
1.4728	0.9793	8.0357
1.1988	0.2590	8.8480
1.0385	0.9583	8.8977
1.0875	1.0630	8.9976
1.0355	0.9876	9.7417
0.6239	0.6742	9.3708
0.9350	0.8710	9.6604
0.8877	0.4104	9.4540
0.4636	0.9218	9.1256
1.2628	0.7113	8.9276
0.8524	0.5707	9.5072
0.6616	0.9218	9.3583
1.4776	0.7107	9.4672
1.1061	0.2710	9.5467
0.6556	0.6233	9.3738
1.2209	0.6138	9.0933
0.8566	0.2333	9.2207
0.5486	0.6502	9.4510
1.0367	0.4905	9.0711
0.9709	0.5862	9.0705
0.8255	0.5115	9.5126
1.1294	0.7938	8.5728
0.9404	0.8100	9.1280
0.8548	0.6628	9.4432
1.0851	1.0624	9.3134
1.0810	0.3900	9.5682
0.8668	1.0522	9.3559
1.4500	1.2090	8.9856
0.8154	0.8010	9.0783
0.8961	0.7454	9.5162
1.1982	0.8554	9.4079
1.2502	0.0257	9.3403
0.7478	0.6245	9.4713
1.1133	0.9332	9.3248
0.7579	0.3505	9.4827
0.3374	0.8369	9.8249
0.9840	0.8177	9.3302
0.7549	0.1172	10.2604
0.8052	0.6760	9.5222
0.9290	1.3065	9.3284
1.0762	0.0754	9.8021
0.6437	0.9398	9.3667
1.3406	1.3567	8.5268
0.8064	0.1663	9.2697
0.9721	0.9170	9.0903
1.4841	1.4710	9.2392
1.1432	0.4606	9.6945
0.6951	0.9075	9.6077
1.0032	0.8088	9.2141
0.9476	-0.0072	9.5928
0.5198	0.9404	9.5718
1.1731	0.9284	9.1770
1.1073	0.1932	9.3296
0.7017	0.8668	9.2045
0.9978	0.9356	9.2602
0.9990	0.3583	9.6012
0.6778	0.8758	10.0271
1.3382	0.5246	9.1764
1.2173	0.8710	9.4486
0.7992	1.1749	9.1082
1.0959	0.9081	9.3254
1.0175	0.8901	9.4959
0.6957	0.9368	9.4031
1.3071	0.6730	9.5336
1.1599	0.4780	9.6891
0.7274	0.7974	9.5162
1.2024	1.0540	9.1316
0.9793	0.9135	9.0813
0.8512	0.7986	9.5431
1.1061	0.4397	9.6436
1.0151	0.6024	10.1485
0.9416	0.1926	9.9702
0.9667	0.6520	9.5922
1.1432	0.0598	9.7477
0.6126	1.1288	9.6047
0.9487	0.6843	9.3948
0.7669	0.5970	9.7764
0.5468	0.5874	9.5533
0.9529	0.7914	9.5174
0.8973	0.6802	9.5778
0.1645	1.2885	9.3032
1.0887	0.9206	8.7631
0.8177	0.4696	9.1698
0.7316	1.1396	8.8899
1.2449	0.6287	9.3266
1.2610	0.7543	8.9742
0.9972	0.6562	9.3487
1.2006	1.1773	8.9419
1.2317	0.0981	8.6763
0.5587	1.0439	9.2189
1.2066	0.3870	8.9760
0.7747	0.4774	9.5629
0.5922	0.3637	8.8534
1.1485	0.6179	8.9515
1.0648	0.4636	9.1328
0.2572	1.0720	9.1166
1.0762	0.6568	8.6428
0.8506	0.5617	9.3840
0.7472	0.8925	9.4031
0.8895	0.7998	9.2715
1.1186	0.9822	9.7034
0.5545	0.7639	9.3469
1.3089	0.6215	9.3212
1.1019	0.5497	9.2590
0.7065	0.9517	9.3996
1.3137	0.9458	9.4139
1.1324	0.5611	9.6017
1.0044	0.8429	9.3918
1.1653	1.4806	9.1884
1.1683	0.4774	9.5024
0.7495	0.7842	9.4971
1.1474	1.1497	9.1734
0.7053	0.4582	9.5503
0.8064	0.4415	9.6329
0.8465	0.8273	8.9066
1.0056	0.3105	9.4594
0.5103	0.7268	8.9264
0.9416	1.1174	8.9144
1.0325	0.7525	9.5419
0.8058	0.5480	9.3517
1.0720	1.2155	8.8360
1.3483	0.7017	9.0000
0.3404	1.1150	8.9042
0.9254	0.8345	8.7607
0.8698	0.7513	9.0747
1.1629	0.7065	9.3798
0.5832	0.9685	9.2578
1.3286	0.4995	9.1334
0.7567	1.0343	9.4067
0.9051	0.6263	9.5054
0.7591	0.8937	9.4444
1.3256	1.2359	9.9248
0.6221	0.3966	9.6616
1.7803	0.5611	9.8159
0.9123	0.8638	9.9427
0.8435	0.9966	9.7752
1.1127	0.5420	10.1599
0.9673	0.9374	10.1288
0.3147	0.2889	9.3942
1.3184	0.6305	9.4103
1.1946	0.9075	9.5682
0.8883	0.9416	9.7968
1.5009	0.5174	9.7962
1.3358	1.2353	9.7752
0.8698	0.7801	9.4229
1.4512	1.0433	9.5808
1.0427	0.2046	9.6987
0.8249	1.0050	9.6993
1.2610	0.5886	9.7890
1.1803	0.2758	10.0941
0.7992	0.5139	9.4863
1.2000	1.5356	9.3912
0.9069	0.1771	9.1555
0.5737	1.1503	9.2907
1.1611	0.9631	9.0562
0.5623	0.1896	9.5509
0.8070	0.7292	9.3320
0.8901	1.5966	8.6153
0.8351	0.4062	8.6727
0.9212	0.8100	9.7375
1.0857	0.9242	9.1423
1.3352	0.5533	9.3720
0.8620	0.5611	9.3936
1.2634	1.5374	8.9928
1.1456	0.5204	8.5890
1.1988	1.0385	9.7268
0.4822	1.0038	9.3379
1.6654	0.5952	9.1740
0.9344	0.8267	9.6496
1.0600	0.4726	9.6329
0.9613	0.3607	9.5593
1.4710	1.2102	9.7884
0.2560	0.6096	9.0012
1.4554	0.7208	9.7130
0.5850	0.1280	9.9068
0.6389	0.7741	9.4037
1.0098	0.6132	9.6831
1.2742	0.2722	8.9377
1.0534	1.2353	9.0029
1.3280	0.8477	8.8085
1.0313	0.6221	8.8695
0.8907	0.9440	8.7810
1.2233	1.6696	8.8109
1.4423	0.1442	8.8965
0.7376	0.5372	9.3026
1.5350	0.9511	8.7852
0.5282	0.3799	9.3350
0.5174	0.4726	8.7415
0.7274	1.0726	8.7284
0.6383	0.7119	8.2145
1.1856	1.0995	9.2189
0.8357	1.2132	9.3020
1.8706	0.7053	9.1525
0.9996	0.9129	9.3756
1.2790	1.1228	9.2446
1.2903	0.7986	9.5653
1.6510	0.9541	9.7322
0.8387	0.8512	8.7918
1.9687	0.8477	9.1932
1.0307	0.4756	9.2153
0.7753	0.8524	8.9862
0.5815	0.5928	9.1477
0.5061	-0.1274	9.6616
0.2201	0.7178	9.7537
0.5264	0.4833	9.2650
0.9607	0.3434	9.7298
0.6526	0.4379	9.2081
1.3992	1.4692	8.8510
0.9793	0.7436	9.1728
0.9553	1.4237	9.4767
0.9924	1.3836	8.7990
0.9972	0.9278	9.2488
1.2706	0.4816	9.3361
1.0415	0.7932	9.4103
1.4171	1.0905	9.7190
1.0941	0.6963	9.9511
0.6987	0.9852	9.6873
1.0199	0.1519	9.9858
0.9236	-0.0042	10.0091
0.6831	0.8716	9.7064
0.7095	0.7998	9.4995
0.9194	0.4481	9.3068
1.1450	0.8949	9.1806
1.4195	1.3107	9.0693
0.9147	0.5067	9.3350
1.0445	1.0319	9.5778
0.9374	1.4847	9.1878
0.8399	0.4247	9.3194
1.1007	0.8016	9.3367
1.0128	0.7783	9.6125
1.0768	0.6161	9.8560
1.0798	1.0151	9.9523
0.4205	0.7914	9.6215
1.0498	0.5904	9.8476
1.0325	-0.1968	10.0444
0.8566	0.9906	9.3924
1.5625	1.2873	9.0430
0.7388	-0.0191	9.2823
0.8500	1.3717	8.7930
0.9667	1.1934	8.3156
0.6885	0.2770	8.7104
