accelx	accely	accelz
0.9631	0.6837	9.5629
0.9625	0.6849	9.5623
0.9625	0.6849	9.5629
0.9631	0.6855	9.5629
0.9637	0.6855	9.5629
0.9643	0.6861	9.5623
0.9637	0.6867	9.5623
0.9637	0.6867	9.5629
0.9643	0.6861	9.5629
0.9649	0.6861	9.5635
0.9643	0.6855	9.5629
0.9637	0.6861	9.5629
0.9637	0.6861	9.5629
0.9643	0.6861	9.5623
0.9643	0.6861	9.5623
0.9643	0.6861	9.5629
0.9649	0.6861	9.5629
0.9655	0.6855	9.5635
0.9655	0.6855	9.5641
0.9655	0.6861	9.5641
0.9661	0.6861	9.5647
0.9655	0.6855	9.5653
0.9655	0.6861	9.5653
0.9655	0.6861	9.5647
0.9655	0.6861	9.5647
0.9661	0.6861	9.5647
0.9661	0.6861	9.5647
0.9667	0.6855	9.5647
0.9661	0.6855	9.5641
0.9661	0.6855	9.5641
0.9655	0.6861	9.5647
0.9655	0.6861	9.5647
0.9649	0.6855	9.5647
0.9649	0.6849	9.5647
0.9643	0.6843	9.5641
0.9643	0.6843	9.5647
0.9649	0.6843	9.5653
0.9649	0.6843	9.5647
0.9637	0.6849	9.5641
0.9637	0.6843	9.5641
0.9637	0.6843	9.5635
0.9637	0.6843	9.5641
0.9637	0.6843	9.5641
0.9637	0.6837	9.5641
0.9637	0.6837	9.5635
0.9631	0.6837	9.5629
0.9631	0.6843	9.5623
0.9637	0.6843	9.5623
0.9637	0.6849	9.5629
0.9637	0.6849	9.5635
0.9643	0.6843	9.5629
0.9649	0.6843	9.5629
0.9655	0.6843	9.5623
0.9655	0.6837	9.5623
0.9655	0.6843	9.5629
0.9655	0.6843	9.5635
0.9649	0.6843	9.5635
0.9649	0.6849	9.5641
0.9649	0.6849	9.5635
0.9649	0.6849	9.5641
0.9643	0.6855	9.5641
0.9643	0.6855	9.5635
0.9643	0.6855	9.5635
0.9643	0.6861	9.5635
0.9637	0.6861	9.5635
0.9637	0.6861	9.5635
0.9643	0.6861	9.5635
0.9643	0.6861	9.5629
0.9637	0.6861	9.5629
0.9643	0.6855	9.5629
0.9643	0.6855	9.5629
0.9643	0.6855	9.5635
0.9643	0.6855	9.5641
0.9637	0.6861	9.5641
0.9637	0.6861	9.5641
0.9637	0.6861	9.5635
0.9631	0.6861	9.5629
0.9625	0.6861	9.5635
0.9625	0.6867	9.5635
0.9625	0.6861	9.5635
0.9625	0.6861	9.5641
0.9619	0.6861	9.5635
0.9619	0.6867	9.5635
0.9619	0.6873	9.5629
0.9625	0.6873	9.5635
0.9631	0.6873	9.5647
0.9631	0.6873	9.5641
0.9631	0.6873	9.5635
0.9619	0.6873	9.5629
0.9619	0.6867	9.5623
0.9619	0.6867	9.5623
0.9625	0.6867	9.5629
0.9625	0.6867	9.5629
0.9619	0.6867	9.5623
0.9625	0.6867	9.5623
0.9625	0.6867	9.5617
0.9625	0.6873	9.5617
0.9625	0.6867	9.5617
0.9631	0.6861	9.5611
0.9631	0.6861	9.5611
0.9637	0.6861	9.5605
0.9643	0.6855	9.5605
0.9637	0.6849	9.5611
0.9643	0.6855	9.5611
0.9649	0.6855	9.5617
0.9649	0.6855	9.5623
0.9643	0.6861	9.5623
0.9643	0.6861	9.5623
0.9643	0.6861	9.5623
0.9643	0.6867	9.5623
0.9643	0.6861	9.5635
0.9649	0.6861	9.5641
0.9655	0.6855	9.5641
0.9649	0.6855	9.5641
0.9643	0.6855	9.5635
0.9649	0.6855	9.5635
0.9649	0.6855	9.5641
0.9655	0.6849	9.5647
0.9655	0.6855	9.5653
0.9655	0.6849	9.5647
0.9661	0.6849	9.5641
0.9667	0.6855	9.5641
0.9661	0.6855	9.5641
0.9655	0.6855	9.5635
0.9649	0.6861	9.5635
0.9649	0.6855	9.5635
0.9643	0.6861	9.5635
0.9643	0.6861	9.5641
0.9643	0.6861	9.5653
0.9643	0.6855	9.5653
0.9643	0.6855	9.5653
0.9643	0.6855	9.5659
0.9643	0.6855	9.5659
0.9637	0.6855	9.5659
0.9637	0.6861	9.5659
0.9643	0.6861	9.5659
0.9637	0.6861	9.5659
0.9637	0.6861	9.5653
0.9643	0.6861	9.5653
0.9643	0.6861	9.5653
0.9643	0.6855	9.5653
0.9649	0.6855	9.5647
0.9649	0.6849	9.5647
0.9649	0.6849	9.5641
0.9649	0.6849	9.5641
0.9655	0.6849	9.5641
0.9655	0.6849	9.5647
0.9655	0.6849	9.5653
0.9655	0.6855	9.5659
0.9655	0.6849	9.5659
0.9649	0.6849	9.5653
0.9655	0.6843	9.5653
0.9655	0.6843	9.5653
0.9661	0.6843	9.5653
0.9661	0.6843	9.5653
0.9661	0.6849	9.5653
0.9667	0.6849	9.5653
0.9667	0.6843	9.5653
0.9667	0.6843	9.5647
0.9667	0.6837	9.5647
0.9661	0.6837	9.5641
0.9661	0.6831	9.5647
0.9661	0.6831	9.5647
0.9655	0.6831	9.5641
0.9661	0.6837	9.5635
0.9661	0.6837	9.5629
0.9655	0.6837	9.5623
0.9655	0.6843	9.5623
0.9655	0.6843	9.5629
0.9655	0.6843	9.5629
0.9661	0.6849	9.5629
0.9661	0.6849	9.5629
0.9655	0.6855	9.5629
0.9649	0.6855	9.5629
0.9649	0.6873	9.5593
0.9673	0.6861	9.5635
0.9637	0.6867	9.5635
0.9637	0.6843	9.5641
0.9601	0.6825	9.5665
0.9559	0.6885	9.5581
0.9565	0.6879	9.5587
0.9565	0.6921	9.5671
0.9595	0.6963	9.5617
0.9619	0.6927	9.5653
0.9625	0.6885	9.5659
0.9649	0.6897	9.5593
0.9601	0.6796	9.5659
0.9661	0.6825	9.5623
0.9709	0.6879	9.5527
0.9817	0.6802	9.5677
0.9769	0.6754	9.5766
0.9739	0.6921	9.5521
0.9691	0.6814	9.5635
0.9667	0.6945	9.5688
0.9751	0.6957	9.5497
0.9840	0.6933	9.5611
0.9727	0.6897	9.5754
0.9577	0.6921	9.5545
0.9523	0.6784	9.5569
0.9434	0.6784	9.5742
0.9416	0.6951	9.5563
0.9571	0.6933	9.5539
0.9625	0.6814	9.5736
0.9553	0.6855	9.5653
0.9452	0.6891	9.5557
0.9440	0.6802	9.5700
0.9470	0.6825	9.5659
0.9541	0.6897	9.5521
0.9721	0.6790	9.5665
0.9763	0.7017	9.5599
0.9757	0.6957	9.5539
0.9805	0.6855	9.5706
0.9751	0.6897	9.5599
0.9727	0.6879	9.5581
0.9781	0.6814	9.5653
0.9787	0.6825	9.5575
0.9751	0.6855	9.5509
0.9721	0.6766	9.5677
0.9643	0.6790	9.5671
0.9547	0.6861	9.5599
0.9517	0.6808	9.5671
0.9499	0.6873	9.5641
0.9595	0.6867	9.5581
0.9637	0.6879	9.5659
0.9643	0.6855	9.5629
0.9607	0.6921	9.5629
0.9595	0.6879	9.5641
0.9595	0.6927	9.5605
0.9631	0.6957	9.5575
0.9685	0.6921	9.5593
0.9721	0.6879	9.5569
0.9715	0.6873	9.5551
0.9673	0.6831	9.5617
0.9625	0.6843	9.5659
0.9583	0.6849	9.5671
0.9583	0.6802	9.5700
0.9625	0.6802	9.5671
0.9661	0.6825	9.5605
0.9679	0.6855	9.5653
0.9739	0.6879	9.5623
0.9727	0.6957	9.5635
0.9733	0.6945	9.5629
0.9763	0.6915	9.5641
0.9745	0.6939	9.5569
0.9745	0.6903	9.5587
0.9715	0.6861	9.5641
0.9691	0.6831	9.5617
0.9571	0.6796	9.5659
0.9499	0.6742	9.5706
0.9422	0.6778	9.5671
0.9392	0.6730	9.5682
0.9422	0.6820	9.5682
0.9523	0.6891	9.5605
0.9625	0.6939	9.5605
0.9691	0.6981	9.5599
0.9745	0.7011	9.5605
0.9787	0.7005	9.5641
0.9817	0.6957	9.5641
0.9828	0.6855	9.5688
0.9775	0.6754	9.5653
0.9691	0.6700	9.5641
0.9601	0.6646	9.5647
0.9559	0.6664	9.5659
0.9553	0.6700	9.5653
0.9607	0.6802	9.5653
0.9631	0.6903	9.5665
0.9697	0.6951	9.5647
0.9733	0.7023	9.5647
0.9751	0.7053	9.5665
0.9739	0.7017	9.5671
0.9679	0.6927	9.5641
0.9577	0.6802	9.5641
0.9505	0.6736	9.5641
0.9499	0.6658	9.5599
0.9511	0.6652	9.5623
0.9559	0.6742	9.5617
0.9637	0.6808	9.5593
0.9703	0.6927	9.5623
0.9805	0.6975	9.5647
0.9822	0.7029	9.5647
0.9757	0.6993	9.5647
0.9709	0.6933	9.5641
0.9631	0.6849	9.5641
0.9583	0.6778	9.5635
0.9577	0.6736	9.5617
0.9613	0.6772	9.5617
0.9661	0.6790	9.5623
0.9733	0.6855	9.5617
0.9787	0.6963	9.5623
0.9828	0.6987	9.5647
0.9763	0.6951	9.5617
0.9709	0.6897	9.5629
0.9601	0.6831	9.5653
0.9499	0.6790	9.5611
0.9487	0.6742	9.5617
0.9493	0.6772	9.5635
0.9559	0.6831	9.5647
0.9607	0.6885	9.5665
0.9691	0.6939	9.5688
0.9697	0.6993	9.5665
0.9733	0.6993	9.5635
0.9745	0.6945	9.5635
0.9745	0.6873	9.5623
0.9685	0.6796	9.5641
0.9643	0.6760	9.5641
0.9601	0.6724	9.5641
0.9631	0.6718	9.5647
0.9637	0.6825	9.5682
0.9715	0.6927	9.5653
0.9739	0.6909	9.5665
0.9721	0.6975	9.5611
0.9727	0.6969	9.5605
0.9679	0.6933	9.5659
0.9613	0.6885	9.5635
0.9559	0.6796	9.5599
0.9505	0.6772	9.5605
0.9482	0.6796	9.5587
0.9559	0.6873	9.5641
0.9601	0.6891	9.5659
0.9685	0.6963	9.5635
0.9721	0.6963	9.5617
0.9721	0.6939	9.5700
0.9655	0.6903	9.5647
0.9595	0.6825	9.5641
0.9470	0.6790	9.5587
0.9505	0.6736	9.5605
0.9583	0.6796	9.5653
0.9697	0.6867	9.5671
0.9781	0.6885	9.5659
0.9769	0.6969	9.5647
0.9739	0.6891	9.5700
0.9691	0.6915	9.5688
0.9553	0.6861	9.5659
0.9499	0.6790	9.5575
0.9529	0.6814	9.5545
0.9679	0.6843	9.5635
0.9703	0.6891	9.5641
0.9757	0.6975	9.5641
0.9727	0.6927	9.5730
0.9601	0.6909	9.5700
0.9523	0.6861	9.5700
0.9458	0.6814	9.5617
0.9482	0.6802	9.5515
0.9565	0.6796	9.5581
0.9733	0.6885	9.5599
0.9781	0.6939	9.5653
0.9793	0.6993	9.5694
0.9673	0.6921	9.5712
0.9589	0.6885	9.5623
0.9541	0.6825	9.5611
0.9553	0.6790	9.5551
0.9613	0.6849	9.5545
0.9739	0.6849	9.5635
0.9763	0.6921	9.5623
0.9763	0.6945	9.5635
0.9673	0.6867	9.5724
0.9583	0.6855	9.5677
0.9517	0.6790	9.5557
0.9529	0.6843	9.5485
0.9601	0.6843	9.5509
0.9751	0.6957	9.5617
0.9757	0.6957	9.5706
0.9703	0.6945	9.5724
0.9523	0.6933	9.5682
0.9410	0.6790	9.5712
0.9464	0.6748	9.5569
0.9499	0.6736	9.5473
0.9625	0.6808	9.5509
0.9709	0.6915	9.5563
0.9775	0.6957	9.5700
0.9667	0.6999	9.5742
0.9613	0.6939	9.5688
0.9571	0.6808	9.5712
0.9589	0.6790	9.5623
0.9649	0.6760	9.5497
0.9685	0.6831	9.5551
0.9715	0.6957	9.5611
0.9655	0.6969	9.5617
0.9643	0.6975	9.5784
0.9553	0.6873	9.5766
0.9565	0.6790	9.5712
0.9565	0.6772	9.5629
0.9625	0.6688	9.5557
0.9583	0.6808	9.5557
0.9541	0.6867	9.5587
0.9559	0.6939	9.5605
0.9667	0.6999	9.5706
0.9685	0.6969	9.5754
0.9739	0.6897	9.5700
0.9685	0.6861	9.5617
0.9625	0.6802	9.5539
0.9577	0.6760	9.5539
0.9547	0.6831	9.5581
0.9613	0.6909	9.5587
0.9733	0.7083	9.5587
0.9834	0.6951	9.5682
0.9703	0.6873	9.5784
0.9553	0.6730	9.5665
0.9344	0.6598	9.5581
0.9236	0.6568	9.5473
0.9440	0.6604	9.5521
0.9679	0.6867	9.5503
0.9948	0.7160	9.5509
1.0110	0.7286	9.5581
1.0008	0.7178	9.5754
0.9697	0.7071	9.5671
0.9458	0.6790	9.5617
0.9332	0.6634	9.5563
0.9482	0.6610	9.5491
0.9727	0.6754	9.5539
0.9870	0.6915	9.5551
0.9775	0.6999	9.5635
0.9547	0.6975	9.5730
0.9362	0.6891	9.5760
0.9392	0.6706	9.5635
0.9487	0.6784	9.5533
0.9828	0.6766	9.5431
1.0026	0.6957	9.5527
0.9942	0.6939	9.5665
0.9643	0.7023	9.5742
0.9338	0.6891	9.5706
0.9350	0.6760	9.5718
0.9493	0.6748	9.5677
0.9763	0.6736	9.5479
1.0080	0.6933	9.5551
1.0002	0.6921	9.5593
0.9703	0.6933	9.5599
0.9338	0.6831	9.5760
0.9206	0.6766	9.5730
0.9338	0.6736	9.5647
0.9601	0.6754	9.5617
0.9924	0.6790	9.5497
0.9948	0.6891	9.5533
0.9793	0.6915	9.5629
0.9523	0.6939	9.5700
0.9284	0.6909	9.5688
0.9440	0.6843	9.5724
0.9631	0.7029	9.5581
0.9984	0.6873	9.5479
1.0062	0.6891	9.5581
0.9811	0.6790	9.5587
0.9541	0.6724	9.5635
0.9200	0.6772	9.5760
0.9308	0.6730	9.5641
0.9523	0.6975	9.5641
0.9954	0.6891	9.5575
1.0116	0.6969	9.5671
0.9954	0.6897	9.5581
0.9673	0.6855	9.5748
0.9314	0.6873	9.5724
0.9212	0.6802	9.5694
0.9404	0.6849	9.5677
0.9745	0.6843	9.5557
1.0020	0.6885	9.5587
0.9900	0.6933	9.5527
0.9691	0.6742	9.5754
0.9410	0.6861	9.5700
0.9248	0.6814	9.5706
0.9517	0.6802	9.5617
0.9733	0.6831	9.5503
1.0008	0.6820	9.5503
0.9990	0.6969	9.5479
0.9631	0.6915	9.5682
0.9368	0.6957	9.5718
0.9290	0.6837	9.5778
0.9535	0.6825	9.5581
0.9745	0.6867	9.5575
0.9930	0.6820	9.5419
0.9811	0.6891	9.5503
0.9571	0.7011	9.5641
0.9416	0.6951	9.5677
0.9464	0.6921	9.5760
0.9595	0.6837	9.5677
0.9894	0.6736	9.5611
0.9793	0.6778	9.5455
0.9673	0.6861	9.5653
0.9458	0.6993	9.5682
0.9410	0.6963	9.5682
0.9559	0.6915	9.5682
0.9679	0.6766	9.5557
0.9781	0.6706	9.5461
0.9631	0.6831	9.5551
0.9571	0.6909	9.5527
0.9535	0.7113	9.5515
0.9595	0.6993	9.5712
0.9775	0.6897	9.5635
0.9840	0.6784	9.5617
0.9727	0.6724	9.5581
0.9553	0.6790	9.5635
0.9470	0.6909	9.5617
0.9595	0.6945	9.5700
0.9673	0.6945	9.5760
0.9745	0.6814	9.5677
0.9661	0.6802	9.5563
0.9535	0.6742	9.5653
0.9416	0.6879	9.5635
0.9559	0.7017	9.5545
0.9709	0.6915	9.5754
0.9733	0.6903	9.5587
0.9691	0.6849	9.5455
0.9517	0.6592	9.5742
0.9308	0.6814	9.5575
0.9374	0.6820	9.5527
0.9691	0.6897	9.5754
0.9912	0.6909	9.5671
1.0056	0.7041	9.5527
0.9643	0.6903	9.5682
0.9464	0.6921	9.5515
0.9368	0.6969	9.5563
0.9661	0.6873	9.5874
0.9924	0.6933	9.5611
1.0050	0.6909	9.5324
0.9721	0.6820	9.5575
0.9386	0.6790	9.5575
0.9320	0.6843	9.5653
0.9440	0.6772	9.5952
0.9769	0.6736	9.5647
0.9906	0.6736	9.5330
0.9781	0.6754	9.5635
0.9374	0.6820	9.5677
0.9242	0.6999	9.5677
0.9476	0.6915	9.5844
0.9745	0.6820	9.5611
0.9972	0.6885	9.5509
0.9715	0.6885	9.5665
0.9511	0.6909	9.5599
0.9386	0.7107	9.5605
0.9583	0.6766	9.5742
0.9912	0.6790	9.5593
1.0062	0.6903	9.5413
0.9799	0.6891	9.5569
0.9547	0.7023	9.5449
0.9434	0.6873	9.5754
0.9464	0.6837	9.5754
0.9912	0.6885	9.5491
0.9834	0.6790	9.5443
0.9709	0.6981	9.5461
0.9541	0.6927	9.5575
1.0714	0.6927	9.5934
0.9362	0.6796	9.5742
0.9637	0.6831	9.5437
0.9834	0.6766	9.5419
0.9834	0.6909	9.5623
0.9733	0.6921	9.5718
0.9476	0.6957	9.5772
0.9547	0.6831	9.5617
0.9547	0.6748	9.5575
0.9954	0.6784	9.5425
0.9811	0.6730	9.5736
0.9553	0.6897	9.5623
0.9511	0.6987	9.5593
0.9422	0.6796	9.5910
0.9715	0.6820	9.5694
0.9828	0.6843	9.5461
0.9607	0.6676	9.5688
0.9434	0.7059	9.5449
0.9440	0.6903	9.5784
0.9613	0.6963	9.5844
0.9858	0.6790	9.5467
0.9721	0.6622	9.5659
0.9565	0.6688	9.5288
0.9434	0.6921	9.5736
0.9487	0.7047	9.5802
0.9864	0.7047	9.5563
0.9954	0.6706	9.5718
0.9643	0.6670	9.5551
0.9428	0.6897	9.5407
0.9416	0.7029	9.5802
0.9649	0.7149	9.5682
0.9942	0.7107	9.5515
0.9775	0.6634	9.5796
0.9422	0.6879	9.5318
0.9290	0.6963	9.5437
0.9470	0.6975	9.5623
0.9757	0.7131	9.5485
1.0026	0.6855	9.5772
0.9834	0.6873	9.5461
0.9547	0.6963	9.5575
0.9362	0.6784	9.5688
0.9565	0.6969	9.5461
0.9822	0.6556	9.5754
0.9828	0.6825	9.5629
0.9781	0.6736	9.5312
0.9398	0.6790	9.5820
0.9404	0.6861	9.5509
0.9607	0.6736	9.5593
0.9691	0.6766	9.5736
0.9757	0.7095	9.5288
0.9529	0.6748	9.5605
0.9332	0.6951	9.5730
0.9577	0.6963	9.5575
0.9470	0.6778	9.5850
0.9799	0.6909	9.5318
0.9625	0.6933	9.5539
0.9607	0.6945	9.5581
0.9751	0.7083	9.5730
0.9595	0.6843	9.5934
0.9900	0.6861	9.5258
0.9667	0.6682	9.5539
0.9691	0.6969	9.5503
0.9763	0.7113	9.5569
0.9595	0.6825	9.6083
0.9679	0.7005	9.5401
0.9559	0.6646	9.5401
0.9452	0.6766	9.5629
0.9595	0.7107	9.5443
0.9619	0.6849	9.5922
0.9739	0.6951	9.5659
0.9523	0.6855	9.5425
0.9416	0.6538	9.5359
0.9482	0.6951	9.5569
0.9613	0.6658	9.5694
0.9805	0.6933	9.5455
0.9607	0.6670	9.5527
0.9517	0.6903	9.5437
0.9691	0.6903	9.5599
0.9733	0.6903	9.5886
1.0002	0.7059	9.5395
0.9834	0.6849	9.5599
0.9541	0.7029	9.5533
0.9529	0.6861	9.5635
0.9571	0.6688	9.5892
0.9679	0.6861	9.5551
0.9679	0.6790	9.5407
0.9535	0.7101	9.5377
0.9505	0.6718	9.5802
0.9428	0.6730	9.5880
0.9691	0.6820	9.5629
0.9565	0.6796	9.5581
0.9787	0.7160	9.5318
0.9661	0.6718	9.5766
0.9589	0.6778	9.5964
0.9619	0.6897	9.5629
0.9583	0.6843	9.5659
0.9781	0.6933	9.5455
0.9607	0.6652	9.5599
0.9535	0.6598	9.5868
0.9470	0.6975	9.5694
0.9386	0.6921	9.5569
0.9846	0.6688	9.5449
0.9709	0.6855	9.5635
0.9667	0.6820	9.5545
0.9697	0.7065	9.5934
0.9362	0.7202	9.5593
0.9876	0.6855	9.5288
0.9547	0.6508	9.5826
0.9619	0.6897	9.5276
0.9739	0.6939	9.5617
0.9470	0.6987	9.5790
0.9607	0.6933	9.5336
0.9470	0.6287	9.5886
0.9482	0.6837	9.5401
0.9805	0.7083	9.5677
0.9721	0.7071	9.5647
0.9942	0.7047	9.5383
0.9392	0.6532	9.5850
0.9721	0.6975	9.5204
0.9679	0.7155	9.5808
0.9936	0.7107	9.5419
1.0134	0.6993	9.5611
0.9440	0.6652	9.5760
0.9643	0.7005	9.5306
0.9607	0.6760	9.5916
0.9763	0.7190	9.5467
0.9972	0.6814	9.5288
0.9446	0.6628	9.5653
0.9493	0.7077	9.5365
0.9374	0.6640	9.5958
0.9787	0.7137	9.5706
0.9852	0.7083	9.5401
0.9559	0.6766	9.5389
0.9577	0.6933	9.5455
0.9320	0.6772	9.5868
0.9858	0.7095	9.5521
0.9751	0.6802	9.5790
0.9697	0.6891	9.5216
0.9715	0.6652	9.5545
0.9242	0.6622	9.5796
0.9757	0.7029	9.5491
0.9428	0.6377	9.5898
0.9679	0.6718	9.5078
0.9505	0.6646	9.5527
0.9476	0.6676	9.5808
0.9685	0.7214	9.5623
0.9368	0.6616	9.5796
0.9781	0.6700	9.5359
0.9386	0.7041	9.5641
0.9733	0.7077	9.5449
0.9793	0.7125	9.5671
0.9547	0.6891	9.5581
0.9912	0.6598	9.5539
0.9398	0.7083	9.5832
1.0098	0.7226	9.5371
0.9787	0.6927	9.5844
0.9739	0.6849	9.5371
0.9667	0.6688	9.5365
0.9577	0.6975	9.5730
0.9888	0.7041	9.5545
0.9685	0.6580	9.5659
0.9595	0.6742	9.5551
0.9230	0.6706	9.5694
0.9458	0.6933	9.5563
0.9619	0.6754	9.5934
0.9613	0.6598	9.5533
0.9679	0.6814	9.5503
0.9147	0.6742	9.5533
0.9505	0.6891	9.5467
0.9446	0.6341	9.6203
0.9745	0.6724	9.5623
0.9571	0.7059	9.5599
0.9547	0.6927	9.5300
0.9637	0.6987	9.5557
0.9595	0.6455	9.5952
1.0008	0.7155	9.5700
0.9487	0.7184	9.5503
0.9912	0.7214	9.5048
0.9631	0.6742	9.5659
0.9793	0.6772	9.5772
0.9966	0.7071	9.5844
0.9260	0.7202	9.5461
0.9828	0.6706	9.5485
0.9200	0.6018	9.6077
0.9912	0.6951	9.5599
0.9565	0.7023	9.5934
0.9601	0.7256	9.5228
0.9601	0.6825	9.5629
0.9428	0.6431	9.5892
0.9643	0.6999	9.5473
0.9087	0.6790	9.5473
0.9834	0.7029	9.5156
0.9362	0.6485	9.5868
1.0038	0.6814	9.5587
0.9661	0.6825	9.5898
0.9470	0.7256	9.5150
0.9811	0.6706	9.5790
0.9655	0.7029	9.5688
1.0241	0.7190	9.5509
0.9583	0.6706	9.5671
0.9757	0.7382	9.5024
0.9392	0.6736	9.5976
0.9822	0.7035	9.5623
0.9805	0.6951	9.5796
0.9529	0.6903	9.5533
0.9589	0.6957	9.5240
0.9242	0.6616	9.5976
0.9721	0.6784	9.5754
0.9727	0.6485	9.5784
0.9709	0.7125	9.4977
0.9374	0.6437	9.5365
0.9410	0.6724	9.5766
0.9559	0.6526	9.5946
0.9649	0.6682	9.5838
0.9661	0.7310	9.5204
0.9493	0.6532	9.5485
0.9535	0.6957	9.5605
0.9673	0.6754	9.5850
0.9811	0.7017	9.5832
0.9517	0.7334	9.5330
0.9571	0.6556	9.5521
0.9416	0.6736	9.5778
0.9864	0.7053	9.5533
0.9840	0.6927	9.5916
0.9918	0.6999	9.5300
0.9553	0.6718	9.5629
0.9559	0.6724	9.5659
0.9715	0.7190	9.5611
0.9583	0.6676	9.5623
0.9948	0.6999	9.5347
0.9344	0.6891	9.5485
0.9828	0.7047	9.5527
0.9368	0.6861	9.5862
0.9817	0.6760	9.5509
0.9470	0.6784	9.5611
0.9601	0.7083	9.5282
0.9745	0.6598	9.6059
0.9434	0.6580	9.5671
0.9589	0.6921	9.5455
0.9236	0.6724	9.5347
0.9972	0.7172	9.5431
0.9559	0.6437	9.6203
1.0098	0.7023	9.5611
0.9242	0.6981	9.5365
0.9787	0.7113	9.5174
0.9673	0.6802	9.6077
0.9960	0.6718	9.5760
0.9840	0.7226	9.5796
0.9374	0.7340	9.4773
0.9625	0.7083	9.5324
0.9571	0.6449	9.6233
1.0032	0.6993	9.6185
0.9404	0.6969	9.5599
0.9482	0.7591	9.4791
0.8907	0.6024	9.5742
1.0110	0.6496	9.6179
0.9541	0.6508	9.6358
0.9721	0.7065	9.5007
0.9218	0.7202	9.4947
0.9344	0.6293	9.5718
1.0056	0.6556	9.6179
0.9852	0.6897	9.6059
0.9840	0.7274	9.5252
0.9129	0.6676	9.5162
0.9757	0.6604	9.5778
0.9745	0.6167	9.6053
1.0026	0.7531	9.5736
0.9356	0.7202	9.5407
0.9482	0.6915	9.5120
0.9535	0.6784	9.5748
0.9852	0.6550	9.6185
0.9733	0.7723	9.5288
0.9302	0.6891	9.5617
0.9769	0.7005	9.5479
0.9715	0.6425	9.5856
0.9972	0.6867	9.5694
0.9446	0.7172	9.5342
0.9422	0.6562	9.5641
0.9505	0.6664	9.5605
0.9559	0.6496	9.5706
0.9446	0.6586	9.5587
0.9709	0.7125	9.5312
0.9440	0.6526	9.5647
0.9966	0.6975	9.5419
0.9326	0.7178	9.5533
0.9613	0.6742	9.5467
0.9553	0.7448	9.5868
1.0122	0.6975	9.5569
1.0140	0.7119	9.5778
0.9374	0.7394	9.4941
0.9948	0.6837	9.5844
0.9517	0.7149	9.6012
1.0223	0.7316	9.5874
0.9499	0.6508	9.5467
0.9894	0.7406	9.4642
0.9236	0.6179	9.5742
1.0122	0.6754	9.5856
0.9380	0.6413	9.6233
0.9499	0.6514	9.5054
0.9111	0.7041	9.4983
1.0714	0.6508	9.5563
0.9793	0.6616	9.6059
0.9583	0.6766	9.6077
0.9284	0.7107	9.5246
0.9392	0.7143	9.4983
0.9529	0.6837	9.5509
1.0020	0.6197	9.5856
0.9811	0.7543	9.5629
0.9338	0.7035	9.5467
0.9637	0.7579	9.5030
0.9589	0.6293	9.5688
1.0199	0.6520	9.5904
0.9691	0.7495	9.5324
0.9787	0.7077	9.5527
0.9619	0.7089	9.5276
0.9948	0.6275	9.6023
0.9781	0.7041	9.5389
0.9828	0.7256	9.5575
0.9254	0.6873	9.5515
1.0062	0.6694	9.5503
0.9470	0.6598	9.5796
0.9733	0.7107	9.5276
0.9182	0.7143	9.6209
0.9715	0.6957	9.5742
0.9948	0.6802	9.5700
0.9679	0.6760	9.5108
0.9751	0.7244	9.5820
0.9703	0.7286	9.5958
1.0002	0.6921	9.5928
0.9769	0.6604	9.5198
0.9667	0.6724	9.5168
0.9392	0.6514	9.6006
0.9882	0.7376	9.6143
0.9661	0.6359	9.5934
0.9739	0.6897	9.4905
0.9015	0.6132	9.5395
0.9535	0.7083	9.5898
0.9535	0.6873	9.6035
0.9416	0.6903	9.5671
0.9105	0.7047	9.5120
0.9015	0.6203	9.5958
0.9912	0.6808	9.5862
0.9703	0.6784	9.6125
0.9164	0.6981	9.5228
0.9278	0.6945	9.4989
0.9529	0.6544	9.5892
1.0026	0.6658	9.5605
0.9613	0.6909	9.5748
0.9727	0.7519	9.4881
0.9535	0.7125	9.5449
1.0636	0.6945	9.6143
1.0295	0.7137	9.6406
0.9876	0.7011	9.5497
0.9398	0.7507	9.5144
0.9709	0.6682	9.5629
0.9589	0.6395	9.6149
0.9984	0.6724	9.6035
0.8919	0.7143	9.5210
0.9535	0.6891	9.4881
0.9368	0.6568	9.5814
0.9996	0.6167	9.6311
0.9326	0.7573	9.5419
0.9511	0.7160	9.5222
0.9398	0.7286	9.5246
0.9781	0.6096	9.6197
0.9966	0.6939	9.6017
0.9559	0.7298	9.5407
0.9236	0.6867	9.5521
0.9559	0.6365	9.5401
0.9601	0.6467	9.6209
0.9846	0.7131	9.5365
0.9170	0.6718	9.5790
0.9846	0.6736	9.5563
0.9661	0.6670	9.6059
1.0086	0.6849	9.5682
0.9523	0.7501	9.5371
0.9721	0.6305	9.5802
0.9595	0.6855	9.5557
0.9727	0.6658	9.6041
0.9338	0.7442	9.5491
0.9631	0.6173	9.6113
0.9631	0.7065	9.5306
0.9428	0.6778	9.5479
0.9535	0.7460	9.5665
0.9942	0.6843	9.5934
0.9942	0.6873	9.5862
0.9828	0.6981	9.5407
0.9499	0.7448	9.5521
0.9864	0.6849	9.5533
0.9930	0.6802	9.5994
0.9637	0.6335	9.5635
0.9188	0.7149	9.5204
0.9344	0.6742	9.5126
0.9787	0.6843	9.6017
0.9912	0.6502	9.6059
0.9338	0.7178	9.5347
0.9332	0.7621	9.4516
0.9493	0.6784	9.5766
0.9900	0.6508	9.6149
0.9123	0.6688	9.6089
0.9416	0.7974	9.4953
0.9129	0.6921	9.5300
1.0104	0.6203	9.6460
0.9876	0.6598	9.6113
0.9517	0.6915	9.5682
0.9296	0.7053	9.4905
0.9649	0.6592	9.6059
0.9924	0.6329	9.5928
0.9643	0.6634	9.6137
0.9822	0.7113	9.5324
0.9888	0.7190	9.5336
0.9834	0.6030	9.6065
0.9811	0.7214	9.5677
0.9446	0.7190	9.5706
0.9416	0.7663	9.5036
0.9739	0.6730	9.5880
0.9834	0.7280	9.5306
0.9888	0.7268	9.5874
0.9811	0.7914	9.5276
0.9769	0.6957	9.5617
0.9673	0.6562	9.5748
0.9739	0.6867	9.5718
0.9404	0.6879	9.5688
0.9553	0.6580	9.5234
0.9709	0.6413	9.5617
0.9864	0.6329	9.5300
0.9398	0.6772	9.5862
0.9482	0.6562	9.5371
0.9476	0.6802	9.5377
0.9655	0.6712	9.5246
0.9667	0.7017	9.5988
0.9553	0.7131	9.5605
0.9817	0.7244	9.5437
0.9523	0.7442	9.5324
0.9422	0.6748	9.6155
0.9691	0.7208	9.6311
0.9781	0.6927	9.5497
0.9631	0.7525	9.5192
0.9416	0.6568	9.5467
1.0169	0.6849	9.6251
1.0157	0.6550	9.5916
0.9924	0.7388	9.5084
0.9595	0.7029	9.4785
0.9960	0.6718	9.5814
1.0169	0.6574	9.5952
0.9374	0.6831	9.5425
0.9141	0.7454	9.4839
0.9296	0.6981	9.5461
1.0020	0.6718	9.6275
0.9260	0.6335	9.5677
0.9326	0.7759	9.5210
0.9152	0.6790	9.5479
0.9476	0.6197	9.6352
0.9499	0.6191	9.6227
0.9505	0.7149	9.5216
0.9398	0.6837	9.5228
0.9493	0.6251	9.5688
0.9984	0.6461	9.6101
0.9637	0.6778	9.5635
0.9691	0.7238	9.5168
0.9787	0.6975	9.5389
1.0086	0.6449	9.5880
0.9948	0.7382	9.5395
0.9822	0.7316	9.5258
0.9464	0.7137	9.5677
0.9763	0.6676	9.5934
0.9954	0.7149	9.6029
0.9709	0.7412	9.5120
0.9613	0.7166	9.5539
0.9894	0.7029	9.5724
0.9805	0.6688	9.6107
0.9745	0.7089	9.5808
0.9757	0.6682	9.5593
0.9757	0.6766	9.5760
0.9870	0.6263	9.5449
0.9751	0.6748	9.5659
0.9643	0.6562	9.5347
0.9434	0.6790	9.5359
0.9583	0.6496	9.5144
0.9362	0.6849	9.5401
0.9410	0.6748	9.5922
0.9643	0.6993	9.5611
0.9482	0.7196	9.5593
0.9308	0.6772	9.5431
0.9625	0.6963	9.6329
0.9619	0.6646	9.5934
0.9344	0.7579	9.5473
0.9314	0.6855	9.5090
1.0134	0.6742	9.6095
1.0014	0.6538	9.6382
0.9960	0.7418	9.5258
0.9601	0.7621	9.4678
1.0235	0.6431	9.5060
1.0331	0.6150	9.6197
0.9703	0.6724	9.5730
0.9404	0.7914	9.4971
0.9745	0.6891	9.5126
0.9918	0.6383	9.5928
0.9553	0.6622	9.6000
0.9392	0.7627	9.5234
0.9577	0.7597	9.5647
0.9314	0.6365	9.5766
0.9362	0.6849	9.5970
0.9350	0.7137	9.5575
0.9559	0.7322	9.5509
0.9535	0.6311	9.5766
0.9751	0.6365	9.5659
0.9511	0.7137	9.5276
0.9380	0.6544	9.5186
0.9787	0.6227	9.5838
0.9936	0.6425	9.6041
0.9930	0.7029	9.5377
0.9757	0.7310	9.5336
0.9727	0.6658	9.5503
1.0026	0.6718	9.5814
0.9619	0.7107	9.5730
0.9667	0.7687	9.5413
0.9541	0.7011	9.5665
0.9811	0.6634	9.5347
0.9745	0.7166	9.5880
0.9511	0.6993	9.5581
0.9948	0.7537	9.5204
0.9811	0.6957	9.5198
0.9984	0.7071	9.5401
0.9858	0.6957	9.5742
1.0074	0.7442	9.5324
0.9715	0.7442	9.5150
0.9404	0.6658	9.5371
0.9811	0.6712	9.6012
0.9822	0.6664	9.6029
0.9188	0.7059	9.4983
0.9164	0.7519	9.4965
0.9511	0.6479	9.5706
0.9691	0.6377	9.6580
0.9182	0.6616	9.5718
0.9476	0.7495	9.5276
0.9452	0.6191	9.5898
0.9577	0.5958	9.6382
0.9523	0.6891	9.5599
0.9493	0.6879	9.5497
0.9822	0.6802	9.5730
0.9864	0.6042	9.6424
0.9846	0.6927	9.5359
0.9625	0.7334	9.5359
0.9637	0.7202	9.5180
0.9757	0.6706	9.5946
0.9571	0.6694	9.5389
0.9661	0.7484	9.5264
0.9601	0.6951	9.5910
0.9727	0.6879	9.5922
0.9828	0.6927	9.5976
0.9326	0.7125	9.5054
0.9410	0.6820	9.5623
0.9613	0.6461	9.5892
0.9739	0.6820	9.6029
0.9248	0.6927	9.5395
0.9392	0.7232	9.4815
0.9482	0.7017	9.5521
0.9631	0.6317	9.5700
0.9278	0.6843	9.6185
0.9655	0.7095	9.5192
0.9464	0.6891	9.5623
0.9482	0.6802	9.5521
0.9589	0.6999	9.5814
0.9936	0.7113	9.5982
0.9733	0.6891	9.5144
0.9559	0.7190	9.5013
0.9775	0.7555	9.5503
0.9715	0.6718	9.6167
0.9685	0.7208	9.5802
0.9685	0.7370	9.5479
0.9840	0.7208	9.5557
1.0008	0.6401	9.6293
0.9828	0.6820	9.5790
0.9553	0.7926	9.4827
0.9679	0.6897	9.5270
1.0050	0.6323	9.6209
0.9529	0.6293	9.6053
0.9673	0.7460	9.5240
0.9505	0.6754	9.5527
0.9553	0.7633	9.5688
0.9380	0.6646	9.5880
0.9224	0.7274	9.5258
0.9523	0.7376	9.5527
0.9248	0.6299	9.6113
0.9787	0.6849	9.5772
0.9625	0.7484	9.5527
0.9697	0.7250	9.5084
0.9834	0.6867	9.5599
1.0014	0.6646	9.6089
0.9936	0.7226	9.5300
0.9733	0.7143	9.5569
1.0116	0.6556	9.5324
0.9960	0.6580	9.5784
0.9733	0.7083	9.5318
0.9613	0.7298	9.5013
0.9679	0.6724	9.5653
0.9464	0.6574	9.5312
0.9416	0.6885	9.6293
0.9470	0.7244	9.5665
0.9338	0.7065	9.5700
0.9547	0.7376	9.5228
0.9655	0.7155	9.5796
0.9906	0.6526	9.6065
0.9900	0.6873	9.5371
0.9212	0.7196	9.5072
0.9589	0.7352	9.5102
0.9685	0.6156	9.6616
0.9709	0.6969	9.5431
0.9577	0.6825	9.5371
1.0056	0.7256	9.5342
1.0134	0.6407	9.6687
0.9476	0.6604	9.5766
0.9374	0.7274	9.5306
0.9577	0.6682	9.5407
0.9607	0.6317	9.5988
0.9733	0.6347	9.5557
1.0020	0.7801	9.5515
1.0074	0.6897	9.5479
0.9416	0.6580	9.5796
0.9482	0.6861	9.5623
0.9206	0.7454	9.5641
0.9422	0.7334	9.5605
0.9900	0.7220	9.5778
1.0122	0.6825	9.5174
0.9781	0.6754	9.5407
0.9218	0.6867	9.5473
0.9799	0.7160	9.6155
0.9601	0.7214	9.5623
0.9464	0.6574	9.5623
0.9709	0.7107	9.5144
0.9882	0.6778	9.5515
0.9822	0.7035	9.5419
0.9164	0.6419	9.6149
0.9721	0.6784	9.5395
0.9440	0.7071	9.5318
0.9111	0.6933	9.5150
0.9834	0.7914	9.5521
0.9781	0.6909	9.5994
0.9643	0.7364	9.5120
0.9302	0.7041	9.5647
1.0217	0.6915	9.6317
1.0074	0.6371	9.6227
0.9691	0.7633	9.4971
0.9799	0.8195	9.4701
1.0181	0.7035	9.5826
0.9858	0.6102	9.6472
0.9936	0.7137	9.5473
0.9637	0.7729	9.5072
0.9942	0.5850	9.5724
0.9368	0.6467	9.6376
0.9673	0.7089	9.4857
0.9655	0.6915	9.5395
0.9236	0.5719	9.5766
0.9416	0.6831	9.6017
0.9224	0.6987	9.5503
0.9152	0.6598	9.5324
0.8967	0.6467	9.5892
0.9230	0.6664	9.5485
0.9278	0.6700	9.5712
0.9374	0.6616	9.5611
0.9464	0.7190	9.5509
0.9505	0.6855	9.5455
0.9272	0.6694	9.6095
0.9487	0.7053	9.5503
0.9751	0.7418	9.5712
0.9703	0.6879	9.5222
0.9978	0.6849	9.6017
1.0355	0.7149	9.5282
1.0211	0.7370	9.5174
0.9775	0.6772	9.5258
0.9876	0.6939	9.5521
0.9900	0.6790	9.5593
0.9960	0.7196	9.5324
0.9619	0.7149	9.6113
1.0146	0.6688	9.5898
1.0140	0.6790	9.5623
0.9667	0.7460	9.4600
0.9380	0.8291	9.5180
0.9805	0.6945	9.6287
0.9894	0.6550	9.6089
0.9302	0.7131	9.4803
0.9511	0.7137	9.4857
1.0086	0.6299	9.5850
0.9362	0.6467	9.6269
0.9254	0.7382	9.5318
0.9464	0.6802	9.5336
0.9302	0.5563	9.6119
0.8931	0.6299	9.6107
0.9577	0.7238	9.5294
0.9583	0.6760	9.5587
0.9452	0.6078	9.5964
0.9105	0.6784	9.5036
0.9876	0.6897	9.5084
0.9589	0.6855	9.5389
0.9446	0.6796	9.5377
0.9482	0.7472	9.5850
0.9655	0.6604	9.5425
0.9799	0.6945	9.5545
0.9828	0.7190	9.5479
1.0241	0.7507	9.5892
0.9852	0.6987	9.5880
1.0014	0.7484	9.5282
1.0002	0.7555	9.5001
1.0008	0.7244	9.5772
0.9769	0.7232	9.5551
0.9769	0.7448	9.3499
0.9679	0.7202	9.5060
0.9673	0.6915	9.5318
1.0044	0.6969	9.6095
1.0110	0.6885	9.5282
0.9296	0.7268	9.5090
0.9601	0.6903	9.5623
0.9583	0.6443	9.6077
0.9350	0.7035	9.5832
0.9320	0.8028	9.5318
0.9296	0.6814	9.5994
0.9458	0.5414	9.6610
0.9356	0.6676	9.5718
0.9529	0.7645	9.5264
0.9727	0.5868	9.5994
0.9326	0.5689	9.6125
0.9350	0.7149	9.5066
0.9894	0.6574	9.5282
0.9966	0.5856	9.5862
0.9547	0.7388	9.5700
0.9499	0.7472	9.5054
0.9505	0.6634	9.5635
0.9260	0.6496	9.5712
0.9326	0.7214	9.5742
0.9350	0.7143	9.5593
0.9141	0.6843	9.5688
0.9553	0.7442	9.5377
0.9954	0.7190	9.5665
0.9757	0.6855	9.5718
0.9978	0.7878	9.5383
1.0104	0.7220	9.5473
1.0104	0.6963	9.5551
0.9852	0.7071	9.5479
1.0355	0.7214	9.5144
1.0211	0.6802	9.5952
0.9799	0.7178	9.5425
1.0146	0.7041	9.5629
1.0199	0.6520	9.4791
0.9583	0.7334	9.5150
0.9805	0.7944	9.5437
0.9793	0.6700	9.6376
0.9571	0.6461	9.5898
0.9326	0.7902	9.5443
0.9649	0.7083	9.5880
0.9840	0.6604	9.6586
0.9464	0.7208	9.6251
0.9308	0.7819	9.4989
0.9978	0.5892	9.6113
0.7813	0.5779	9.6323
0.9697	0.7226	9.5539
0.9607	0.6664	9.5030
0.9769	0.5390	9.5671
0.9493	0.6078	9.6161
0.9428	0.6831	9.5700
0.9434	0.6694	9.5527
0.9164	0.6473	9.5760
0.9069	0.6658	9.5880
0.9314	0.6778	9.5210
0.9057	0.7131	9.5862
0.9284	0.7232	9.5718
0.9583	0.7328	9.5629
0.9117	0.7513	9.5252
0.9655	0.7759	9.5353
1.0062	0.6814	9.5970
1.0235	0.7244	9.5527
0.9918	0.7579	9.5443
1.0528	0.7065	9.5336
1.0600	0.6502	9.5677
1.0265	0.6837	9.5718
1.0265	0.7184	9.5766
1.0325	0.6610	9.4989
0.9996	0.7017	9.5353
0.9799	0.7681	9.5024
0.9637	0.7047	9.5688
0.9697	0.6568	9.5342
0.9141	0.7358	9.5258
0.9499	0.6915	9.5682
0.9661	0.6939	9.5007
0.9045	0.6945	9.6275
0.9135	0.7041	9.5252
0.9428	0.6161	9.5772
0.8818	0.5659	9.6640
0.9290	0.6514	9.5665
0.9141	0.6999	9.5491
0.9553	0.5450	9.5443
0.9655	0.5785	9.5844
0.9440	0.6784	9.5461
0.9613	0.7699	9.5018
0.9643	0.6269	9.5832
0.9691	0.6652	9.5449
0.9715	0.7555	9.5024
0.9499	0.7603	9.5760
1.0074	0.7149	9.5760
0.9679	0.7711	9.6017
0.9882	0.7400	9.5353
0.9799	0.7543	9.5461
0.9894	0.6879	9.5712
0.9840	0.7316	9.5461
0.9607	0.7310	9.5425
1.0026	0.7035	9.5718
1.0253	0.6030	9.5910
0.9912	0.6742	9.5838
1.0056	0.7430	9.5162
0.9954	0.7125	9.5013
0.9990	0.6419	9.6012
0.9499	0.6993	9.5599
0.9811	0.7322	9.5515
0.9547	0.6837	9.5724
0.9398	0.6837	9.5180
0.9266	0.7166	9.5976
0.9547	0.6108	9.6430
0.9135	0.6413	9.5946
0.9158	0.7077	9.5318
0.9511	0.6473	9.5240
0.9344	0.6179	9.5970
0.9392	0.7131	9.5306
0.9583	0.7184	9.4797
0.9661	0.6293	9.6107
0.9613	0.6760	9.5491
0.9721	0.7615	9.5150
0.9769	0.7023	9.5778
1.0157	0.6604	9.5671
0.9715	0.7412	9.5838
0.9715	0.7394	9.5168
0.9476	0.7472	9.5503
0.9870	0.6646	9.5700
0.9607	0.6616	9.5820
0.9236	0.7023	9.4899
0.9523	0.6305	9.5790
1.0181	0.6329	9.6083
0.9775	0.6730	9.6376
0.9655	0.8148	9.4965
1.0175	0.7089	9.5108
0.9990	0.5677	9.6341
0.9757	0.6981	9.5575
0.9882	0.7268	9.5425
1.0026	0.6078	9.5647
0.9595	0.6449	9.5413
0.9428	0.7071	9.5007
0.9846	0.6622	9.5623
0.9553	0.6652	9.5898
0.9673	0.7495	9.5635
0.9589	0.7059	9.5688
0.9308	0.6514	9.5545
0.9482	0.7364	9.5784
0.9320	0.7125	9.5712
0.9045	0.6610	9.6065
0.9135	0.7436	9.5401
0.9266	0.6802	9.5437
0.9212	0.6263	9.5258
0.9511	0.6921	9.5647
0.9428	0.6897	9.5359
0.9840	0.6736	9.5228
0.9649	0.7466	9.5066
1.0014	0.6820	9.5593
1.0116	0.6682	9.6012
0.9769	0.7956	9.5222
1.0128	0.8010	9.5766
1.0594	0.6353	9.5946
0.9888	0.6921	9.5922
0.9930	0.7783	9.4480
1.0050	0.6945	9.6281
0.9434	0.6173	9.6305
0.9840	0.7980	9.6191
0.9470	0.7789	9.5509
1.0146	0.5898	9.5359
0.9948	0.6616	9.6059
0.9523	0.6915	9.4917
0.9589	0.6568	9.5623
0.8991	0.6437	9.5575
0.9039	0.6790	9.5766
0.9206	0.6353	9.4606
0.9308	0.6861	9.5413
0.9727	0.6909	9.5820
0.9984	0.7178	9.5916
0.9230	0.7663	9.5688
0.9499	0.6520	9.5042
0.9380	0.5964	9.5611
0.8871	0.6102	9.5425
0.9571	0.7789	9.5425
0.9613	0.7166	9.5964
1.0020	0.6981	9.5455
0.9930	0.7753	9.5192
1.0140	0.7149	9.6023
1.0283	0.6706	9.6430
0.9948	0.7651	9.6071
1.0044	0.7292	9.5682
1.0463	0.4959	9.5515
0.9840	0.6467	9.5180
0.9769	0.6891	9.5132
0.9793	0.7119	9.5425
0.8973	0.6508	9.5623
0.9075	0.6514	9.5024
0.8991	0.7011	9.4731
0.9260	0.6371	9.5880
0.9404	0.7053	9.6460
0.9135	0.7053	9.5371
0.9559	0.6837	9.5581
0.9434	0.6299	9.5677
0.9260	0.6275	9.5653
0.9236	0.6867	9.5168
0.9015	0.7083	9.5180
0.9745	0.6167	9.5808
0.9739	0.6885	9.5724
0.9828	0.7238	9.5324
1.0552	0.6831	9.5790
1.0756	0.6580	9.6017
0.9870	0.7466	9.5425
0.9840	0.7884	9.5294
0.9793	0.6449	9.5605
0.9565	0.6275	9.6023
0.9164	0.7489	9.5880
0.9523	0.7262	9.5084
0.9966	0.6849	9.5545
0.9793	0.7029	9.5066
0.9613	0.7178	9.5395
0.9870	0.7071	9.5712
0.9350	0.7442	9.5659
0.9392	0.7160	9.4959
0.9511	0.6921	9.5473
0.9739	0.6473	9.5347
0.9876	0.7304	9.5641
0.9900	0.7531	9.5742
0.9266	0.6437	9.5641
0.9553	0.6592	9.5718
0.9290	0.7250	9.5186
0.9493	0.6455	9.5832
0.9996	0.6760	9.6143
0.9936	0.7125	9.4719
0.9422	0.7400	9.5102
0.9697	0.6682	9.5593
0.9482	0.6425	9.6185
0.9482	0.7268	9.5766
0.9428	0.8189	9.5120
0.9763	0.6670	9.6305
1.0068	0.6102	9.6305
0.9559	0.6688	9.5754
0.9715	0.7119	9.5431
1.0098	0.6490	9.6209
0.9302	0.6341	9.5814
0.9912	0.7370	9.5419
0.9619	0.7178	9.5497
1.0008	0.5994	9.6071
0.9553	0.7310	9.5892
0.9733	0.7579	9.4965
0.9918	0.6688	9.6107
0.9697	0.6712	9.5581
0.9266	0.7543	9.5575
0.9523	0.6646	9.5497
0.9679	0.6993	9.5659
0.9499	0.7166	9.5407
0.9882	0.7089	9.5760
0.9846	0.6700	9.5533
0.9631	0.7531	9.5497
0.9900	0.6993	9.5796
0.9188	0.6401	9.5623
0.9751	0.6802	9.5784
0.9272	0.7160	9.4959
0.9248	0.6718	9.5174
0.9613	0.6688	9.5934
0.9888	0.6951	9.5473
0.9332	0.7268	9.5300
1.0038	0.7813	9.4935
1.0074	0.7035	9.5922
0.9894	0.6479	9.5862
0.9870	0.8465	9.5623
0.9332	0.6873	9.5611
1.0122	0.5258	9.6448
0.9446	0.7238	9.5162
0.9224	0.7645	9.4582
0.9960	0.5809	9.5958
0.9314	0.6987	9.6017
0.9320	0.7759	9.5611
1.0098	0.7113	9.5449
1.0086	0.6496	9.5270
0.9595	0.7454	9.5186
1.0157	0.7537	9.5228
0.9529	0.6915	9.5473
0.9840	0.7244	9.6083
0.9470	0.6903	9.5814
0.9631	0.6820	9.5712
1.0080	0.6987	9.5605
0.9906	0.6598	9.4935
0.9260	0.6891	9.5665
0.9631	0.7005	9.6012
0.9637	0.6622	9.6095
0.9487	0.6873	9.5772
0.9978	0.6197	9.5617
0.9685	0.7077	9.5419
0.9769	0.7388	9.5377
0.9547	0.8124	9.5922
0.9440	0.6820	9.6335
0.9709	0.7591	9.6394
0.9117	0.7131	9.4839
0.9577	0.6526	9.5688
1.0062	0.5719	9.7818
0.9589	0.7149	9.6167
0.9350	0.7418	9.5443
0.9541	0.6532	9.5318
0.9529	0.5497	9.6400
0.9493	0.6921	9.5700
0.9691	0.7878	9.5497
0.9577	0.6538	9.5575
0.9697	0.7083	9.6125
0.9212	0.7286	9.5228
0.9242	0.7394	9.5611
0.9924	0.6622	9.6006
0.7819	0.6616	9.5168
0.9464	0.7352	9.5066
0.9942	0.7113	9.5485
0.9990	0.6329	9.5868
0.9679	0.7208	9.5336
1.0074	0.7424	9.5234
0.9846	0.6802	9.5150
0.9996	0.7089	9.5551
0.9529	0.7783	9.5545
0.9775	0.6909	9.5629
0.9846	0.7220	9.5605
0.9416	0.6957	9.5647
0.9733	0.6963	9.5581
1.0020	0.6879	9.5700
0.9787	0.7412	9.4875
0.9787	0.7567	9.4821
0.9942	0.7274	9.5988
0.9751	0.6885	9.6418
0.9673	0.7412	9.4971
0.9541	0.7172	9.5007
0.9667	0.5491	9.5976
0.9685	0.6496	9.5982
0.9452	0.7956	9.5282
0.9595	0.6496	9.5796
0.9547	0.5677	9.5916
0.9027	0.6526	9.5186
0.9141	0.6359	9.6071
0.9565	0.5874	9.6059
0.9248	0.6891	9.5539
0.9242	0.7155	9.5066
0.9338	0.6353	9.5198
0.9565	0.6730	9.6053
0.9254	0.7089	9.5850
0.9320	0.7621	9.5162
0.9709	0.7830	9.5455
0.9978	0.7155	9.5336
1.0301	0.7567	9.5623
1.0481	0.8291	9.5168
1.0810	0.7753	9.5365
1.0074	0.9111	9.5389
1.0558	0.7789	9.4995
1.0475	0.7376	9.5383
1.0128	0.6508	9.5515
0.9781	0.7854	9.5347
0.9912	0.6921	9.5850
1.0128	0.6084	9.6466
0.9864	0.7131	9.5443
0.9709	0.7819	9.4953
1.0373	0.6012	9.6012
0.9966	0.7525	9.5485
0.9206	0.8351	9.4803
0.9667	0.6544	9.5353
0.9721	0.5934	9.6047
0.9045	0.6981	9.5377
0.9338	0.7143	9.4893
0.9529	0.6502	9.5593
0.9152	0.6508	9.6083
0.8997	0.6718	9.5491
0.8818	0.6473	9.5515
0.9392	0.5689	9.6275
0.9278	0.6060	9.5419
0.9242	0.6855	9.4893
0.9493	0.6796	9.5928
0.9541	0.6425	9.5431
0.9105	0.7029	9.5210
0.8734	0.6939	9.5090
0.9009	0.6652	9.5312
0.8919	0.6419	9.5593
0.8620	0.6443	9.5419
0.9099	0.6431	9.5653
0.9338	0.6562	9.5515
0.8877	0.6598	9.6071
0.9129	0.6604	9.6562
0.9978	0.6526	9.5844
0.9254	0.7250	9.5718
0.9649	0.7334	9.5270
1.0187	0.7376	9.6071
1.0086	0.6766	9.6131
1.0026	0.7430	9.5072
1.0002	0.7077	9.5467
1.0295	0.5533	9.6352
0.9781	0.6963	9.5659
0.9589	0.7747	9.4905
1.0157	0.6598	9.5904
0.9900	0.6658	9.6341
0.9547	0.8183	9.4881
0.9924	0.7472	9.5688
1.0116	0.6245	9.5467
0.9487	0.7184	9.3661
0.9392	0.7268	9.4630
0.9470	0.7029	9.5318
0.9320	0.7149	9.6221
0.9290	0.7035	9.5461
0.9482	0.6688	9.5174
0.9822	0.6754	9.5904
0.9787	0.6532	9.5425
0.9799	0.6628	9.5994
0.9643	0.7077	9.5437
0.9523	0.7005	9.4797
0.9428	0.6831	9.5383
0.9703	0.7298	9.5844
0.9811	0.6945	9.6071
0.9864	0.7334	9.4965
0.9320	0.7687	9.4917
0.9577	0.6825	9.5659
0.9822	0.7280	9.5760
0.9218	0.7950	9.5455
0.9799	0.7184	9.5970
1.0457	0.7017	9.6394
0.9691	0.7166	9.5994
1.0241	0.7256	9.5982
1.0768	0.7208	9.6382
0.9894	0.6215	9.5635
1.0134	0.7160	9.4815
0.9655	0.7160	9.4259
0.9894	0.6024	9.6275
0.9793	0.6473	9.6275
0.9428	0.6999	9.4791
0.9888	0.6335	9.5790
0.9332	0.6831	9.4851
0.8614	0.7723	9.5198
0.9033	0.6885	9.5958
0.9147	0.7705	9.5892
0.8596	0.7388	9.5850
0.9093	0.6736	9.5940
0.9828	0.7059	9.6113
0.9565	0.7507	9.5018
0.9828	0.7244	9.5784
0.9817	0.6335	9.4917
0.9966	0.7071	9.5120
0.9787	0.6299	9.5138
0.9529	0.6419	9.4827
0.9972	0.6455	9.6221
0.9864	0.5779	9.5030
0.9553	0.6933	9.4959
0.9960	0.7017	9.5156
0.9990	0.7029	9.5748
0.9422	0.7974	9.5694
0.9499	0.8285	9.5521
0.9942	0.6987	9.5754
0.9470	0.7053	9.5682
0.9679	0.7890	9.5706
0.9673	0.7460	9.5694
1.0002	0.7041	9.5659
0.9320	0.7639	9.5449
0.9733	0.6562	9.5084
1.0355	0.6682	9.6179
0.9805	0.6526	9.5682
0.9380	0.6245	9.5467
1.0062	0.5880	9.5796
0.9589	0.6485	9.5623
0.9446	0.6796	9.5832
0.9595	0.6981	9.5844
0.9511	0.6951	9.5485
0.9027	0.7340	9.5108
0.9063	0.6861	9.5904
0.9242	0.6616	9.6753
0.9248	0.8871	9.5252
0.9224	0.7998	9.5120
0.9565	0.6221	9.5216
1.0062	0.7053	9.5976
0.9619	0.7777	9.5677
0.9105	0.6353	9.5928
0.9954	0.6520	9.6107
0.9398	0.6628	9.5467
0.9458	0.6323	9.5042
1.0696	0.7077	9.5359
1.0379	0.7196	9.5772
1.0086	0.7543	9.5228
1.0486	0.8477	9.5198
1.0110	0.7155	9.6167
0.9793	0.6514	9.5934
1.0032	0.8500	9.5892
0.9637	0.7675	9.5264
1.0157	0.6808	9.5479
0.9775	0.7872	9.6113
0.9487	0.7352	9.5318
1.0157	0.7412	9.5844
0.9529	0.7663	9.5677
0.9416	0.6724	9.5599
1.0265	0.6479	9.6107
1.0062	0.7137	9.5036
0.9834	0.6598	9.5581
1.0181	0.6275	9.5593
0.9679	0.7155	9.5216
0.9350	0.7178	9.4588
0.9458	0.6544	9.5324
0.9135	0.6473	9.6006
0.9296	0.6820	9.5084
0.9254	0.7400	9.5617
1.0600	0.6126	9.5425
0.9529	0.6568	9.5718
0.9218	0.7238	9.5790
0.8483	0.6754	9.5796
0.8967	0.6670	9.6311
0.8351	0.6670	9.5671
0.8351	0.6371	9.5389
0.9547	0.6520	9.5790
0.9912	0.6538	9.5437
0.9547	0.7334	9.5228
1.0241	0.7220	9.4695
1.0199	0.7322	9.5306
0.9888	0.6957	9.5539
1.0277	0.7663	9.5228
0.9733	0.7633	9.5192
0.9822	0.6371	9.4863
1.0044	0.7214	9.5694
0.9482	0.7232	9.5641
0.9894	0.7214	9.5611
0.9799	0.7460	9.5880
0.9434	0.6951	9.5940
0.9691	0.6467	9.5976
1.0217	0.7830	9.5353
0.9392	0.7304	9.5443
0.9787	0.5928	9.6071
0.9936	0.7214	9.5407
0.9344	0.7143	9.5180
0.9697	0.6275	9.5976
1.0116	0.7262	9.6029
0.9601	0.6401	9.5455
0.9601	0.6227	9.5736
0.9751	0.6778	9.6299
0.9272	0.6389	9.6173
0.8931	0.7322	9.5563
0.9302	0.7992	9.5485
0.9523	0.6060	9.5730
0.9565	0.6640	9.5623
0.9595	0.8040	9.5694
0.9781	0.7059	9.6658
1.0050	0.6784	9.5754
0.9679	0.7884	9.5347
0.9631	0.6760	9.5264
1.0570	0.7059	9.6006
1.0229	0.7585	9.6137
0.9858	0.6849	9.5258
1.0433	0.6395	9.5635
0.9775	0.6120	9.5563
0.9356	0.6383	9.5246
0.9613	0.6849	9.6101
0.9350	0.7364	9.5515
0.9182	0.7573	9.5617
0.9416	0.6796	9.6119
0.9583	0.7053	9.6006
0.9302	0.7872	9.4887
0.9547	0.6933	9.6287
0.9218	0.6580	9.5659
0.9583	0.6676	9.5084
0.9870	0.7119	9.5904
0.9805	0.6831	9.5473
1.0086	0.7178	9.5802
1.0163	0.6975	9.4923
0.9625	0.7131	9.4899
1.0301	0.6790	9.6646
1.0271	0.6867	9.6394
0.9739	0.7902	9.5270
0.9769	0.7681	9.5108
1.0193	0.6215	9.5934
0.9087	0.6257	9.6167
0.9170	0.7478	9.5443
0.9589	0.6610	9.6616
0.9152	0.5958	9.6430
0.9147	0.7669	9.4935
0.9715	0.6658	9.5401
1.0026	0.7041	9.5300
0.9476	0.8148	9.5102
0.9667	0.7424	9.5192
0.9888	0.6688	9.5892
0.9775	0.7298	9.5784
1.0020	0.7077	9.6221
0.9906	0.7256	9.5036
0.9942	0.7824	9.4600
0.9523	0.6323	9.5084
0.9242	0.6311	9.5318
0.9476	0.7077	9.6035
0.9362	0.6467	9.5192
0.9511	0.7071	9.5174
0.9822	0.7143	9.5353
1.0026	0.6395	9.5336
0.9601	0.7789	9.5688
0.9093	0.7220	9.5682
0.9595	0.6293	9.6771
0.8919	0.6676	9.5359
0.8883	0.6682	9.5730
0.9763	0.5946	9.5694
0.9565	0.6831	9.5312
0.9314	0.7603	9.4432
0.9434	0.6843	9.5539
0.9511	0.6203	9.6149
0.9374	0.6945	9.5461
0.9667	0.7382	9.5144
0.9960	0.6072	9.5605
1.0283	0.6455	9.5617
1.0026	0.7902	9.5228
0.9428	0.7292	9.5449
1.0134	0.6849	9.6424
0.9404	0.7358	9.5766
0.9332	0.7310	9.5270
1.0241	0.6897	9.5491
0.9852	0.7190	9.5258
0.9601	0.7388	9.5371
0.9942	0.7125	9.5371
1.0086	0.7244	9.5443
0.9434	0.6658	9.5766
0.9811	0.7041	9.5605
0.9547	0.7519	9.6329
0.9667	0.6550	9.5724
0.9930	0.7543	9.5647
0.9799	0.7023	9.5401
0.9805	0.7196	9.5647
0.9870	0.7071	9.5718
0.9577	0.7316	9.5569
0.9930	0.6251	9.5617
1.0104	0.7119	9.4253
0.9332	0.7352	9.4689
0.9697	0.6126	9.6089
0.9739	0.7597	9.6747
0.9009	0.7322	9.5401
0.9260	0.6126	9.5928
1.0062	0.6658	9.6233
0.9356	0.6790	9.5994
0.9942	0.7232	9.6161
0.9912	0.7705	9.6323
0.9631	0.6455	9.5760
0.9111	0.6784	9.5389
0.9290	0.6855	9.5635
0.9828	0.5970	9.6466
0.9918	0.6640	9.5539
0.9703	0.8680	9.5090
1.0163	0.6401	9.5216
1.0421	0.6425	9.6412
0.9637	0.7717	9.5964
0.9194	0.7149	9.5677
1.0056	0.6377	9.6215
0.9069	0.6867	9.5700
0.9631	0.7537	9.5162
1.0546	0.7531	9.5419
1.0528	0.7322	9.5551
0.9924	0.8142	9.5671
0.9763	0.7603	9.5401
1.0116	0.7250	9.6017
0.9410	0.6730	9.5389
0.9464	0.6640	9.6083
0.9577	0.6437	9.5300
0.9751	0.6766	9.5198
0.9499	0.6963	9.5682
0.9517	0.6879	9.5694
0.9541	0.7388	9.5539
0.9296	0.6706	9.5300
0.9272	0.6473	9.5294
0.9505	0.7214	9.6065
0.9685	0.7113	9.6035
0.9565	0.7322	9.5677
0.9458	0.7023	9.5503
0.9619	0.6622	9.5970
0.9027	0.6413	9.5778
0.8638	0.6748	9.5982
0.9182	0.5994	9.6921
0.8991	0.6401	9.5371
0.8841	0.7346	9.4689
1.0211	0.5503	9.5539
1.0134	0.6323	9.5545
0.9344	0.7980	9.5007
0.9667	0.6413	9.5850
0.9499	0.6090	9.5611
0.9147	0.6993	9.5539
0.9918	0.7274	9.5772
1.0283	0.7149	9.5706
1.0217	0.7364	9.5772
0.9924	0.7053	9.5084
0.8961	0.7184	9.5401
0.9529	0.6760	9.6520
0.9601	0.6951	9.6388
1.0666	0.8273	9.4809
1.0325	0.7196	9.5204
1.0738	0.6550	9.5988
0.9996	0.8853	9.5802
0.9858	0.7352	9.5796
1.0044	0.6604	9.6329
0.9200	0.6185	9.5150
0.9410	0.6891	9.4588
0.9966	0.6670	9.5443
1.0211	0.6634	9.5946
0.9757	0.7495	9.5467
0.9529	0.7573	9.5192
0.9781	0.6197	9.5682
0.9595	0.6706	9.5964
0.9194	0.7442	9.5922
0.9158	0.6802	9.5964
0.9523	0.7184	9.5844
0.9338	0.6993	9.6095
1.0540	0.6718	9.5694
1.0098	0.7119	9.5635
0.9721	0.6754	9.5748
0.9248	0.6628	9.5168
0.9817	0.7304	9.5312
0.9589	0.6604	9.5425
0.9398	0.7059	9.5060
0.9577	0.7286	9.5832
0.9793	0.6658	9.6059
0.9565	0.6927	9.5174
0.9332	0.7352	9.5437
0.9781	0.6814	9.5868
0.9434	0.7268	9.4935
0.9141	0.7705	9.4552
0.9954	0.6233	9.5718
0.9954	0.6688	9.5665
0.9619	0.7687	9.5371
1.0032	0.6598	9.5653
0.9817	0.6802	9.5671
0.9649	0.7113	9.5599
0.9392	0.6742	9.5282
0.9505	0.7089	9.6311
0.9679	0.6359	9.6652
0.9811	0.7029	9.5730
0.9637	0.7944	9.5144
1.0253	0.6203	9.5898
1.0379	0.6359	9.6173
0.9505	0.8028	9.5748
0.9613	0.6562	9.6017
0.9769	0.5826	9.6610
0.9039	0.6951	9.5539
0.9242	0.6915	9.5114
1.0038	0.6455	9.5563
0.9948	0.6999	9.5324
0.9541	0.7902	9.4809
0.9464	0.7573	9.5533
1.0110	0.6897	9.6508
0.9320	0.7071	9.6089
0.9410	0.7358	9.5270
1.0008	0.6814	9.5461
1.0128	0.6616	9.5778
0.9559	0.7555	9.5671
0.9918	0.6849	9.5724
1.0050	0.6281	9.6317
0.9242	0.6263	9.5545
0.9936	0.7262	9.5324
1.0163	0.6760	9.5820
1.0379	0.6658	9.5659
1.0146	0.7573	9.5318
1.0157	0.6126	9.5007
1.0092	0.6694	9.6035
0.9487	0.6885	9.5377
0.9458	0.7609	9.5712
0.9356	0.6939	9.5970
0.9924	0.7047	9.5587
0.9302	0.7232	9.5671
0.9625	0.6383	9.5497
0.9781	0.6736	9.5808
0.9069	0.6766	9.6125
1.0684	0.6640	9.5706
0.9081	0.7077	9.5180
0.9200	0.6144	9.5234
0.9135	0.6520	9.5312
0.9218	0.7220	9.6293
0.9828	0.6544	9.6418
0.9553	0.6664	9.5539
0.9356	0.6616	9.5330
1.0062	0.4947	9.6257
0.9685	0.7053	9.5377
0.9206	0.7807	9.5443
0.9817	0.6353	9.6287
0.9643	0.6502	9.5515
0.9045	0.6885	9.4911
0.9978	0.6156	9.5946
0.9595	0.7268	9.6442
0.9721	0.7579	9.5946
0.9918	0.7573	9.5587
0.9661	0.6646	9.5485
0.9781	0.6790	9.5563
0.9703	0.7160	9.5491
0.9458	0.7310	9.5814
0.9781	0.6634	9.5306
1.0056	0.6891	9.4887
0.9535	0.7460	9.4378
1.0134	0.6754	9.5814
1.0307	0.6963	9.6717
0.9511	0.7884	9.6089
0.9368	0.7190	9.5126
0.9775	0.5910	9.6006
0.8997	0.6532	9.5509
0.8931	0.7501	9.4444
0.9182	0.6706	9.6017
0.9230	0.6496	9.5635
0.8847	0.7436	9.4917
0.9320	0.6580	9.5712
1.0157	0.6664	9.6376
0.9757	0.7597	9.5742
0.9691	0.7525	9.5030
1.0534	0.7214	9.5138
1.0451	0.7172	9.5503
1.0080	0.7286	9.5306
1.0307	0.7962	9.4917
1.0343	0.6981	9.5365
0.9781	0.6425	9.5629
0.9960	0.7944	9.5694
0.9727	0.7346	9.5772
1.0062	0.7137	9.5533
0.9703	0.8130	9.4821
0.9751	0.6161	9.5419
1.0187	0.7005	9.6233
0.9673	0.7729	9.5904
0.9583	0.7286	9.5605
0.9661	0.6718	9.5120
0.9679	0.6461	9.4809
0.9278	0.6323	9.5078
0.9117	0.6257	9.5455
0.9326	0.6730	9.5898
0.9326	0.6144	9.6221
0.8883	0.6425	9.5712
0.9368	0.6927	9.5270
0.9482	0.6748	9.5228
0.9081	0.7328	9.5820
0.8937	0.6909	9.5844
0.9332	0.6933	9.5778
0.8764	0.6467	9.5814
0.9063	0.6156	9.5677
1.0080	0.6628	9.6873
0.9691	0.6837	9.5282
0.9930	0.7370	9.4923
1.0002	0.6496	9.5449
1.0283	0.7137	9.5802
1.0325	0.8076	9.5246
1.0205	0.7095	9.5742
1.1055	0.7113	9.5976
1.0600	0.7507	9.5240
1.0205	0.7023	9.5796
1.0492	0.6532	9.6191
0.9972	0.7549	9.5234
0.9170	0.7328	9.5054
0.9493	0.6748	9.5270
0.9553	0.6891	9.5808
0.9404	0.6945	9.5168
0.9679	0.7555	9.4983
0.9745	0.6562	9.6041
0.9476	0.6359	9.6358
0.9470	0.7621	9.5611
0.9045	0.6951	9.5766
0.9314	0.5462	9.5365
0.9248	0.6963	9.5108
0.8931	0.6514	9.5766
0.9769	0.6102	9.5982
0.9691	0.7262	9.5449
0.9631	0.7184	9.6448
1.0050	0.7125	9.5036
1.0217	0.7208	9.5443
0.9900	0.7442	9.5455
0.9721	0.7848	9.5491
0.9745	0.7735	9.5730
1.0086	0.6347	9.5892
0.9559	0.7531	9.5371
0.9739	0.7699	9.4959
0.9739	0.6855	9.5246
0.9482	0.7400	9.5437
0.9320	0.7412	9.5288
1.0175	0.6903	9.6083
1.0301	0.7119	9.6209
0.9972	0.6993	9.5832
1.0612	0.7244	9.5587
1.0337	0.6879	9.5066
0.9715	0.6568	9.5144
0.8985	0.6502	9.6089
0.9482	0.6957	9.6006
0.9206	0.7107	9.6029
0.8979	0.6006	9.6113
1.0163	0.6544	9.5706
0.9745	0.6568	9.5294
0.8931	0.6431	9.5563
0.9051	0.6407	9.6083
0.8680	0.6933	9.5832
0.8387	0.6347	9.5515
0.8967	0.6156	9.5503
0.9799	0.6784	9.6059
0.9553	0.7011	9.5802
0.9577	0.6993	9.5832
0.9434	0.6323	9.6346
0.9422	0.6437	9.6047
0.9081	0.7436	9.4755
0.9476	0.6138	9.6095
0.9936	0.6353	9.5425
0.9894	0.8339	9.4360
1.0062	0.7238	9.6119
1.0534	0.6861	9.5946
1.0223	0.8070	9.5647
1.0283	0.7232	9.5294
1.0696	0.7382	9.5551
0.9864	0.7424	9.5605
1.0385	0.7101	9.5234
1.0181	0.7735	9.5431
0.9912	0.7190	9.5389
0.9793	0.7005	9.5306
0.9523	0.7950	9.5724
0.9793	0.7089	9.5802
0.9733	0.6790	9.6239
0.9811	0.6132	9.5635
0.9601	0.7059	9.5383
0.9894	0.7059	9.5718
0.9864	0.7041	9.5431
0.9517	0.7059	9.4923
0.9206	0.6897	9.5150
0.9511	0.6311	9.5288
0.9350	0.6640	9.5994
0.8847	0.6496	9.5706
0.9894	0.6353	9.5294
0.9535	0.6808	9.5527
0.9571	0.6640	9.4881
1.0122	0.7878	9.5054
0.9805	0.7388	9.5802
0.9188	0.6431	9.6023
0.9422	0.7741	9.5706
0.9440	0.6778	9.5467
0.9685	0.5904	9.5563
0.9679	0.6849	9.5234
0.9691	0.7017	9.4983
0.9374	0.6616	9.5144
0.9123	0.6802	9.5533
0.9769	0.6981	9.6287
0.9655	0.7149	9.5910
0.9787	0.7370	9.5533
1.0008	0.6772	9.6185
0.9936	0.6586	9.4905
0.9242	0.6658	9.5880
0.9200	0.5665	9.6664
0.9308	0.7328	9.5820
0.8835	0.7370	9.4875
0.9266	0.6233	9.5575
0.9942	0.7160	9.5665
0.9721	0.7316	9.5222
0.9984	0.6993	9.6035
0.9727	0.7029	9.6711
0.9470	0.6981	9.5760
0.9452	0.7101	9.5503
0.9721	0.6700	9.5365
1.0032	0.6658	9.4785
0.9547	0.7304	9.5282
0.9446	0.7232	9.5479
0.9960	0.7262	9.6586
0.9553	0.7166	9.6305
0.9577	0.7143	9.5671
1.0104	0.7113	9.6107
0.9870	0.6562	9.5940
0.9990	0.7352	9.5682
0.9607	0.6981	9.5623
0.9386	0.6401	9.5234
0.9505	0.6772	9.5066
0.9535	0.6742	9.5294
0.9906	0.7268	9.5593
1.0050	0.7687	9.5072
0.9769	0.6676	9.5826
0.9918	0.6957	9.6006
0.9972	0.7591	9.5479
0.9858	0.6461	9.6466
0.9775	0.7071	9.5479
0.9374	0.7824	9.4977
0.9476	0.5910	9.5623
0.9470	0.6371	9.5826
0.8883	0.7555	9.6077
0.9272	0.6861	9.5515
0.9338	0.6993	9.5706
0.9637	0.6532	9.6203
1.0002	0.7280	9.5581
1.0247	0.7442	9.5587
1.0265	0.6658	9.6394
1.0235	0.6855	9.5886
1.0343	0.7507	9.5521
1.0421	0.6425	9.5228
1.0169	0.6808	9.4827
1.0157	0.7543	9.4031
0.9972	0.6969	9.4612
0.9715	0.6742	9.5688
0.9649	0.7406	9.5359
0.9565	0.7430	9.5880
0.9302	0.7358	9.6131
0.9697	0.7442	9.6335
0.9697	0.7358	9.6538
0.9565	0.7304	9.5712
0.9625	0.7531	9.5216
0.9266	0.6329	9.5467
0.9517	0.6897	9.5539
0.9272	0.7196	9.5174
1.0008	0.6269	9.5407
1.0229	0.6640	9.5844
0.9745	0.6562	9.5288
0.9840	0.6479	9.5611
0.9984	0.6209	9.5874
0.9105	0.6227	9.6317
0.8949	0.6598	9.5856
0.8853	0.7184	9.4779
0.9027	0.5868	9.5790
0.9158	0.6646	9.5718
0.9164	0.7866	9.4755
0.9350	0.6718	9.6400
0.9176	0.6748	9.5611
0.9182	0.7914	9.5551
0.9960	0.6652	9.5994
1.0217	0.7442	9.5694
1.0128	0.7478	9.5407
1.0750	0.7071	9.4995
1.0175	0.7160	9.5748
1.0026	0.6885	9.5922
1.0104	0.6945	9.5772
0.9667	0.6909	9.5270
0.9918	0.6682	9.5635
0.9834	0.6568	9.5485
1.0086	0.6957	9.5635
0.9697	0.7011	9.5976
0.9284	0.6485	9.5688
0.9458	0.6778	9.5647
0.9194	0.6909	9.5599
0.9164	0.6939	9.5503
0.9601	0.7436	9.5252
0.9111	0.6640	9.5856
0.9039	0.7113	9.5742
0.9446	0.7280	9.4983
0.9637	0.5958	9.6346
0.9446	0.6479	9.5665
0.9272	0.7681	9.4713
0.9290	0.4594	9.5994
0.9661	0.6084	9.5844
0.9224	0.6820	9.5359
0.9386	0.6485	9.5306
0.9984	0.6628	9.5982
0.9326	0.7424	9.6119
0.9607	0.6993	9.5180
0.9769	0.7400	9.5712
0.9661	0.7250	9.6532
0.9894	0.7166	9.5760
1.0445	0.7836	9.5318
1.0098	0.7059	9.5964
1.0128	0.6449	9.5527
1.0056	0.7113	9.5419
1.0068	0.6479	9.5539
0.9894	0.7107	9.5647
0.9787	0.6909	9.4815
0.9882	0.6903	9.5036
0.9535	0.7346	9.5258
0.9661	0.7328	9.5001
0.9164	0.6670	9.6376
0.8919	0.7561	9.6209
0.9254	0.7501	9.4983
0.9547	0.6526	9.6000
0.9685	0.7089	9.6454
0.9613	0.7717	9.5593
0.9894	0.7017	9.5862
0.9942	0.6532	9.5850
0.9846	0.7190	9.5611
1.0002	0.6718	9.5611
1.0439	0.6652	9.5324
1.0247	0.7394	9.5377
1.0427	0.7095	9.4905
1.0540	0.7711	9.5024
1.0307	0.7280	9.6101
1.0020	0.7220	9.5850
1.0044	0.7813	9.4965
0.9595	0.7400	9.6012
1.0301	0.7113	9.5318
0.9906	0.7813	9.5347
0.9571	0.6694	9.5916
0.9811	0.7609	9.5521
0.9326	0.6873	9.5838
0.9176	0.6544	9.6083
0.9344	0.7723	9.5712
0.9320	0.6694	9.5048
0.9493	0.6233	9.5449
0.9565	0.7424	9.5437
0.9954	0.7035	9.4618
1.0151	0.6574	9.5509
0.9398	0.6808	9.5946
0.9697	0.7208	9.5174
0.9296	0.6694	9.5186
0.9266	0.6144	9.5491
0.9709	0.6897	9.5754
0.9470	0.6837	9.5162
0.9224	0.6604	9.5677
0.9338	0.6700	9.6149
0.9517	0.6736	9.5802
0.9141	0.6682	9.5706
0.8955	0.6485	9.6041
0.9147	0.6395	9.5222
0.8800	0.6425	9.4983
0.8471	0.5982	9.5647
0.9170	0.5934	9.4941
0.8788	0.5964	9.5904
0.8351	0.5719	9.5611
0.8746	0.6879	9.5599
0.8638	0.5671	9.6227
0.8584	0.6066	9.6101
0.8590	0.7328	9.5563
0.8800	0.5749	9.5551
0.9063	0.5779	9.5587
0.8871	0.7358	9.5007
0.8937	0.6634	9.4791
0.9589	0.6371	9.6000
0.8895	0.6562	9.6017
0.9051	0.6634	9.4905
0.9326	0.6664	9.5647
0.9206	0.6066	9.6257
0.9344	0.6317	9.5790
0.9302	0.6526	9.5186
0.9344	0.5617	9.6460
0.9218	0.6036	9.6119
0.9170	0.6586	9.5449
0.9302	0.6006	9.5659
0.9595	0.6724	9.5467
0.9218	0.6479	9.5222
0.9529	0.6401	9.5222
0.9440	0.7705	9.5874
0.9613	0.6945	9.5533
0.9547	0.6837	9.6053
0.9649	0.7962	9.5688
0.9811	0.7603	9.5336
0.9900	0.6670	9.5814
0.9799	0.6891	9.5928
0.9930	0.7555	9.5306
0.9960	0.6706	9.5371
1.0116	0.6431	9.5443
1.0397	0.7292	9.5324
1.0612	0.7190	9.5342
1.0696	0.7388	9.5294
1.0092	0.7717	9.5862
1.0660	0.7735	9.5252
1.0367	0.7854	9.5186
1.0253	0.7448	9.5688
1.0630	0.8046	9.4965
1.0175	0.8417	9.5342
1.0020	0.7597	9.5886
1.0445	0.8034	9.5796
1.0283	0.6987	9.5892
0.9942	0.7125	9.5455
1.0151	0.7908	9.4827
1.0265	0.6796	9.6047
1.0241	0.6724	9.6000
0.9840	0.7974	9.5413
1.0409	0.6377	9.5192
1.0229	0.6897	9.5808
0.9852	0.8088	9.5210
1.0295	0.7657	9.5001
1.0217	0.7017	9.5479
0.9601	0.7489	9.5216
0.9320	0.7896	9.4660
0.9553	0.7137	9.5796
0.9218	0.6843	9.5856
0.9529	0.7292	9.5431
0.9996	0.6790	9.5491
1.0002	0.6999	9.6221
0.9392	0.6843	9.6442
0.9834	0.7053	9.5814
0.9888	0.6628	9.6311
0.9715	0.6455	9.5814
1.0122	0.7035	9.4995
0.9840	0.6544	9.5527
0.9799	0.6849	9.5611
0.9446	0.6520	9.4827
0.9045	0.5563	9.6059
0.8554	0.6305	9.5294
0.7932	0.6688	9.4618
0.8028	0.5384	9.5838
0.8530	0.6592	9.5665
0.7896	0.6628	9.5748
0.8459	0.5264	9.6239
0.8028	0.6066	9.6484
0.7501	0.6383	9.5706
0.8034	0.5491	9.5084
0.8249	0.5486	9.5874
0.8644	0.5779	9.5910
0.8907	0.6239	9.5042
0.8847	0.4756	9.5880
0.8913	0.5480	9.5856
1.0654	0.5970	9.5234
0.9158	0.6048	9.5461
0.9344	0.6060	9.5766
0.9942	0.6766	9.5545
0.9876	0.6724	9.5264
0.9583	0.7334	9.5485
0.9685	0.7089	9.5784
0.9817	0.7184	9.5874
0.9069	0.7364	9.5413
0.9440	0.7944	9.5072
0.9894	0.6718	9.5706
0.9476	0.6700	9.6143
0.9565	0.8321	9.5300
1.0163	0.7065	9.6053
1.0086	0.6586	9.6173
0.9918	0.7866	9.5186
1.0068	0.7382	9.4995
1.0439	0.6526	9.5886
0.9942	0.7226	9.5443
0.9655	0.7035	9.5024
1.0169	0.6778	9.5688
0.9607	0.6712	9.6012
0.9799	0.6586	9.5371
0.9972	0.7573	9.5533
0.9470	0.7358	9.6006
0.9523	0.7238	9.5796
0.9464	0.7484	9.5587
0.9218	0.6748	9.5934
0.9781	0.7603	9.5778
0.9505	0.6897	9.5629
0.9727	0.6479	9.6406
0.9888	0.7525	9.5611
0.9398	0.6305	9.5264
0.9745	0.5767	9.6017
0.9404	0.7244	9.5395
0.9284	0.6915	9.4444
0.9840	0.6455	9.5228
0.9147	0.7107	9.5688
0.9613	0.6341	9.5491
0.9470	0.6473	9.5904
0.8584	0.6401	9.5754
0.8572	0.6598	9.5330
0.8171	0.6496	9.5431
0.8010	0.6006	9.5730
0.8584	0.6203	9.5629
0.9045	0.6371	9.5479
0.8943	0.6987	9.5790
0.9236	0.6437	9.5850
0.9619	0.6215	9.5922
0.9158	0.6485	9.6149
0.9200	0.6538	9.5653
0.9577	0.6245	9.5617
0.9284	0.5503	9.6562
0.9577	0.6664	9.5766
0.9416	0.6592	9.5048
0.9368	0.5623	9.5928
0.9440	0.7083	9.5485
0.8961	0.6221	9.4630
0.9380	0.6634	9.5551
0.9661	0.7765	9.5521
0.9703	0.7663	9.5557
1.0056	0.7178	9.5838
0.9870	0.8273	9.5802
0.9679	0.7537	9.5820
1.0134	0.7190	9.5473
0.9236	0.7573	9.5904
0.9787	0.6245	9.5682
0.9990	0.6760	9.6113
0.9284	0.6580	9.5688
0.9769	0.6209	9.5030
1.0193	0.5809	9.5647
0.9505	0.6000	9.6442
0.9380	0.6718	9.5551
0.9027	0.6473	9.5910
0.8823	0.5414	9.6514
0.8602	0.6849	9.5688
0.8572	0.6670	9.4636
0.9487	0.6347	9.5724
0.8722	0.6933	9.5790
0.8770	0.6993	9.5036
0.8991	0.6658	9.5946
0.8698	0.6592	9.5928
0.9278	0.6371	9.5467
0.9416	0.6550	9.5706
0.9499	0.6891	9.5342
0.9864	0.6610	9.5712
0.9703	0.6185	9.5623
0.9410	0.7047	9.4971
0.9691	0.6598	9.4959
1.0020	0.6072	9.5790
0.9751	0.7430	9.5078
0.9577	0.7681	9.4833
0.9972	0.6790	9.5353
0.9625	0.7238	9.5964
0.9117	0.7489	9.5958
0.9511	0.7298	9.5748
0.8674	0.6449	9.6466
0.8548	0.6150	9.5599
0.8782	0.6431	9.4749
0.8859	0.5713	9.5862
0.9266	0.6203	9.6077
0.9284	0.6628	9.5282
0.9302	0.6269	9.5838
0.9727	0.6485	9.5216
0.9260	0.6221	9.5545
0.9894	0.6796	9.5210
0.9649	0.8207	9.3529
1.0104	0.6467	9.5413
1.0229	0.6999	9.6759
0.9476	0.7711	9.6197
0.9404	0.6748	9.5754
0.9846	0.6610	9.6161
0.8710	0.6957	9.5832
0.9613	0.6772	9.5042
1.0355	0.6999	9.5593
1.0205	0.7071	9.5671
1.0427	0.7603	9.5096
1.0098	0.7609	9.5497
0.9906	0.6867	9.5659
0.9679	0.6843	9.5647
0.9595	0.6993	9.5395
0.9655	0.7047	9.5569
0.9434	0.6568	9.5515
0.9111	0.6138	9.5724
0.8596	0.6305	9.5946
0.9039	0.6401	9.5198
0.8895	0.4714	9.6119
0.8542	0.5557	9.6388
0.8782	0.6963	9.5013
0.8710	0.6640	9.6418
0.8782	0.5497	9.5419
0.8716	0.7280	9.4480
0.8447	0.6275	9.5539
0.8459	0.5725	9.5766
0.7944	0.6652	9.5198
0.8213	0.5886	9.5013
0.8901	0.6610	9.5868
0.8901	0.6766	9.6071
0.9691	0.6299	9.6077
1.0193	0.7220	9.5509
0.9936	0.7663	9.5868
1.2233	0.6670	9.5653
1.0373	0.7597	9.6221
1.0439	0.7274	9.5850
1.0534	0.7412	9.5820
1.0295	0.6532	9.6221
0.9948	0.6981	9.6035
1.0032	0.7376	9.5521
0.9619	0.6419	9.6000
0.9487	0.6658	9.5886
0.9452	0.7220	9.5264
0.9589	0.6514	9.5264
0.9284	0.6933	9.5557
0.9326	0.6784	9.5001
0.9559	0.6419	9.5653
0.8823	0.6568	9.6023
0.8967	0.6078	9.5659
0.8494	0.5785	9.6167
0.8357	0.6335	9.5575
0.8423	0.6239	9.5437
0.8578	0.5785	9.5904
0.8788	0.6496	9.6215
0.8584	0.6975	9.5240
0.8704	0.6030	9.5778
0.9039	0.6144	9.5431
0.9069	0.6676	9.5210
0.9625	0.6413	9.4905
0.9619	0.7244	9.5635
0.9182	0.7095	9.5724
0.9852	0.6999	9.5443
0.9344	0.7382	9.6143
0.9541	0.6485	9.5671
1.0080	0.7292	9.5228
0.9625	0.7460	9.5964
1.0062	0.7286	9.5353
1.0361	0.7268	9.5730
0.9894	0.6610	9.6382
0.9828	0.7579	9.5114
0.9655	0.7495	9.4995
0.9996	0.6329	9.5796
1.0169	0.6915	9.5563
0.9751	0.6610	9.5365
0.9595	0.5898	9.5509
0.8949	0.6030	9.4929
0.9135	0.5737	9.5389
0.8626	0.7406	9.5904
0.8249	0.6694	9.5539
0.8602	0.6227	9.5892
0.8273	0.6891	9.5940
0.8453	0.7089	9.5754
0.8997	0.6688	9.6323
0.8925	0.6598	9.6687
0.8901	0.7202	9.5994
0.8740	0.7029	9.5270
0.9045	0.5988	9.5916
0.9266	0.6550	9.5892
0.9398	0.6407	9.5264
0.9721	0.6275	9.5551
1.0008	0.6233	9.5736
1.0116	0.6078	9.5371
1.0337	0.6496	9.5479
1.0157	0.6885	9.5952
1.0744	0.6568	9.5970
1.0403	0.7376	9.5922
0.9781	0.7376	9.5665
1.0008	0.6706	9.5437
0.9266	0.6227	9.6496
0.8728	0.6706	9.5425
0.8746	0.8016	9.4408
0.8931	0.6072	9.5820
0.9224	0.6963	9.6083
0.8818	0.7627	9.5180
0.9218	0.6676	9.5389
0.9398	0.7047	9.5192
0.8333	0.6197	9.5186
0.9003	0.6042	9.4971
0.8524	0.6748	9.5581
0.9045	0.5797	9.5814
1.0618	0.6167	9.5587
0.9164	0.6676	9.5371
0.9511	0.6335	9.5892
0.9882	0.5904	9.5940
0.8961	0.6455	9.6239
0.8889	0.7280	9.4331
0.9541	0.6616	9.5276
0.9978	0.6455	9.6676
1.0086	0.7920	9.5467
1.0008	0.8488	9.5150
0.9942	0.7160	9.6077
0.9541	0.7160	9.5671
0.9679	0.6574	9.5527
0.9870	0.7280	9.5826
0.9918	0.7573	9.5904
1.0211	0.6903	9.5838
1.0283	0.7059	9.5551
1.0038	0.7472	9.5090
1.0349	0.6473	9.6029
0.9559	0.6042	9.6472
0.9278	0.6772	9.5563
0.9051	0.6263	9.5647
0.9571	0.5324	9.6197
0.9051	0.6664	9.5772
0.8877	0.6431	9.4827
0.9822	0.6820	9.5641
0.9170	0.7113	9.6012
0.9296	0.7059	9.5527
0.9595	0.7226	9.5922
0.9176	0.6712	9.6107
0.9715	0.6144	9.5808
0.9733	0.6736	9.5682
0.9362	0.6921	9.5712
0.9876	0.6508	9.5449
0.9158	0.6227	9.5982
0.8662	0.6431	9.5700
0.9075	0.7292	9.4480
0.8991	0.6167	9.5808
0.9511	0.6263	9.5653
0.8991	0.7370	9.5096
0.9529	0.6191	9.5353
0.7813	0.6568	9.6233
0.8291	0.6682	9.5485
0.8704	0.6508	9.5377
0.8465	0.6335	9.5904
0.8393	0.5952	9.5712
0.8889	0.6179	9.5383
0.8865	0.6879	9.5120
0.9571	0.6413	9.5024
0.9954	0.7017	9.5754
0.9793	0.7286	9.5712
0.9547	0.7789	9.5342
0.9733	0.6407	9.6257
0.9176	0.5994	9.6676
0.9236	0.6760	9.5473
0.9852	0.6682	9.5431
1.0038	0.6461	9.6161
0.9661	0.7178	9.5904
0.9990	0.7418	9.5192
0.9978	0.6849	9.5748
1.0092	0.6981	9.5653
0.9852	0.7298	9.4815
0.9775	0.7137	9.5168
0.9894	0.7047	9.5647
0.9230	0.6120	9.5688
0.9093	0.6161	9.5976
0.8638	0.7334	9.5509
0.8387	0.4672	9.5677
0.8680	0.5737	9.6478
0.8584	0.6820	9.5922
0.8841	0.6161	9.5485
1.0014	0.6299	9.6071
0.9278	0.6820	9.6185
0.9775	0.6897	9.5132
1.0062	0.6802	9.5401
0.9745	0.6353	9.6053
0.9858	0.6544	9.5318
0.9631	0.7095	9.5359
0.9200	0.6227	9.5796
0.9517	0.6126	9.5288
0.9158	0.6646	9.5832
0.9200	0.6556	9.5389
0.9601	0.6867	9.5036
0.9314	0.6724	9.5575
0.9015	0.7226	9.5234
0.9206	0.7645	9.4660
0.9487	0.6508	9.6173
0.8937	0.6712	9.6143
0.8746	0.7555	9.5413
0.9147	0.5970	9.6263
0.9063	0.5593	9.6460
0.8967	0.6455	9.6012
0.9111	0.6353	9.5485
0.9332	0.6144	9.5665
0.9356	0.6748	9.5635
0.9571	0.6461	9.4839
0.9882	0.6861	9.4851
1.0175	0.6897	9.6077
1.0283	0.6592	9.5886
1.0044	0.7310	9.6101
0.9428	0.6712	9.6131
0.9320	0.6263	9.5054
0.8919	0.6467	9.5970
0.8399	0.6688	9.5700
0.8782	0.7095	9.5013
0.8393	0.6000	9.6352
0.8877	0.6580	9.5742
0.8656	0.7280	9.5060
0.8979	0.5868	9.5922
0.9386	0.6054	9.5976
0.8847	0.6622	9.5455
0.9434	0.5569	9.5258
0.9278	0.6407	9.5718
0.8794	0.6592	9.5365
0.9607	0.6120	9.5383
0.9272	0.5755	9.6287
0.9206	0.5946	9.6047
0.9858	0.6682	9.5234
0.9380	0.6574	9.6257
0.9452	0.6353	9.5910
0.9069	0.7017	9.5814
0.9218	0.6389	9.5850
0.8758	0.7328	9.5180
0.8698	0.7005	9.4552
0.8746	0.6676	9.5294
0.8985	0.7005	9.5353
0.8812	0.6586	9.5509
0.9081	0.6030	9.5545
0.8961	0.7178	9.5467
0.9344	0.6772	9.5569
0.9775	0.6281	9.6197
0.9458	0.6837	9.5784
0.9350	0.7101	9.5443
0.9673	0.6377	9.5772
0.9637	0.5821	9.5575
0.9787	0.6814	9.5515
1.0175	0.6706	9.5096
1.0307	0.6359	9.6311
0.9284	0.6831	9.5796
0.9434	0.7585	9.4636
0.9332	0.6951	9.5988
1.0666	0.6586	9.6125
0.9314	0.7830	9.5108
0.9314	0.7119	9.5330
0.9733	0.7071	9.5383
0.9547	0.7053	9.5449
0.9356	0.6257	9.5814
0.9595	0.7316	9.5928
0.9344	0.6808	9.6227
0.9936	0.6485	9.6155
1.0032	0.7406	9.5318
0.9870	0.7119	9.4791
1.0588	0.6203	9.5318
0.9733	0.6317	9.6729
0.9828	0.7101	9.6460
1.0283	0.7328	9.5623
1.0277	0.6102	9.6382
1.0175	0.7131	9.5353
1.0134	0.7908	9.4731
1.0014	0.6718	9.6143
0.9577	0.7005	9.6012
0.9051	0.7621	9.5336
0.9398	0.6550	9.5228
0.9799	0.7196	9.5946
0.9619	0.7531	9.5766
0.9978	0.7663	9.5180
0.9757	0.7711	9.5814
0.9858	0.7059	9.5820
0.9535	0.7418	9.5473
0.9547	0.7053	9.5342
0.9781	0.7089	9.5455
1.0074	0.6419	9.5539
0.9817	0.6909	9.6209
0.9787	0.7131	9.5258
1.0163	0.7316	9.4935
1.0008	0.6700	9.5982
0.9619	0.7256	9.5712
1.0110	0.7250	9.4833
0.9781	0.6185	9.6472
0.9739	0.6652	9.6681
0.9260	0.7412	9.5605
0.9446	0.6060	9.6670
0.9667	0.6419	9.5952
0.9290	0.7495	9.5760
0.9505	0.6670	9.5072
0.9799	0.7059	9.5240
0.9087	0.7089	9.5946
0.9661	0.6712	9.4827
0.9410	0.7035	9.5264
0.9529	0.6473	9.6053
1.0074	0.7525	9.5635
0.9505	0.7053	9.5198
0.9631	0.6706	9.5485
0.9452	0.7101	9.4803
0.9326	0.6479	9.5694
0.9410	0.7286	9.5826
0.9380	0.7143	9.5359
0.9655	0.6347	9.5593
0.9613	0.6957	9.5694
0.9392	0.6969	9.5389
0.9613	0.6329	9.5694
0.9099	0.6784	9.5688
0.8847	0.6915	9.5222
0.8883	0.6610	9.5581
0.8931	0.6275	9.5395
0.9242	0.7328	9.5784
1.0002	0.7101	9.5371
1.0044	0.6730	9.5682
0.9876	0.6814	9.5712
0.9960	0.7011	9.5288
0.9685	0.6526	9.6071
0.9386	0.6215	9.5814
0.9320	0.7555	9.4510
0.9709	0.6670	9.5150
1.0008	0.6197	9.5892
0.9793	0.7472	9.4815
0.9637	0.7358	9.5473
0.9852	0.7609	9.5647
0.9511	0.7537	9.6329
0.9452	0.7184	9.5916
1.0104	0.7836	9.5383
0.9900	0.7848	9.5790
1.0582	0.7095	9.5030
1.0546	0.7184	9.5228
0.9828	0.7579	9.5790
1.0666	0.7178	9.5359
1.0223	0.6508	9.6173
1.0355	0.7238	9.5629
1.0492	0.8267	9.4301
1.0463	0.6921	9.6131
1.0510	0.6544	9.6251
1.0002	0.7657	9.5790
0.9864	0.6754	9.5491
0.9715	0.6987	9.5778
0.9320	0.7609	9.5886
0.9679	0.7394	9.4905
0.9763	0.6987	9.5635
0.9386	0.7125	9.6065
0.9846	0.7495	9.5144
0.9338	0.7280	9.5694
0.9505	0.6939	9.5910
0.9870	0.6646	9.5730
0.9541	0.6724	9.5479
0.9278	0.6843	9.5336
0.9386	0.6682	9.4839
0.9356	0.6257	9.5473
0.9356	0.6825	9.5832
0.9410	0.6694	9.4947
0.9284	0.6293	9.6029
0.9308	0.6849	9.5868
0.9147	0.7274	9.5688
0.9188	0.6275	9.6083
0.8829	0.6090	9.5389
0.8530	0.7113	9.5551
0.8620	0.6138	9.5647
0.8937	0.5844	9.5216
0.8512	0.6760	9.5880
0.8871	0.6341	9.5007
0.9033	0.5880	9.6311
0.8453	0.5821	9.6317
0.8949	0.7059	9.4911
0.8674	0.6066	9.5994
0.9176	0.5749	9.5641
0.8919	0.6879	9.5102
0.9057	0.6030	9.5413
0.9505	0.6449	9.6376
0.8506	0.6299	9.6077
0.8782	0.6431	9.5383
0.8692	0.6377	9.5150
0.8333	0.5832	9.5856
0.8847	0.5826	9.5718
0.8315	0.6126	9.6065
0.8465	0.6072	9.5820
0.9111	0.5994	9.6209
0.9176	0.5856	9.6311
0.9476	0.6915	9.6287
0.9517	0.7041	9.4767
0.9882	0.6616	9.5533
0.9805	0.6963	9.5365
0.9470	0.7131	9.4887
0.9739	0.6030	9.5976
0.9637	0.6508	9.6454
0.9308	0.7501	9.5096
0.9625	0.6760	9.4552
0.9739	0.6993	9.5635
0.9643	0.7824	9.6012
0.9799	0.7842	9.5766
1.0187	0.7962	9.6412
0.9517	0.7980	9.6035
1.0624	0.8148	9.5413
1.0744	0.7460	9.5952
1.0690	0.7190	9.5718
1.1007	0.8357	9.4552
1.0504	0.7866	9.5042
1.0498	0.6939	9.5240
1.0259	0.7962	9.4881
1.0134	0.7149	9.5186
1.0690	0.7041	9.6023
1.0253	0.7137	9.5952
1.0241	0.6299	9.5790
1.0181	0.7472	9.5395
0.9380	0.6927	9.5892
0.9511	0.6263	9.5814
0.9081	0.7208	9.6131
0.8638	0.7310	9.5312
0.9410	0.7149	9.5790
0.8758	0.6299	9.6101
0.9212	0.7035	9.5551
0.9392	0.7370	9.4749
0.9386	0.6173	9.6137
0.9290	0.6670	9.6191
0.9063	0.7878	9.5114
0.9302	0.6269	9.5407
0.9822	0.6209	9.6358
0.9559	0.7131	9.5802
0.9697	0.6628	9.4761
1.0415	0.6580	9.6215
0.9685	0.6616	9.6281
1.0002	0.6855	9.5389
0.9864	0.6790	9.5599
0.9559	0.6263	9.5682
0.9625	0.6820	9.4923
0.9440	0.7035	9.5007
1.0678	0.6550	9.6047
0.9218	0.6993	9.5904
0.9290	0.7268	9.5371
0.9278	0.6909	9.5760
0.9769	0.7442	9.5377
0.9499	0.7472	9.5736
0.9930	0.7436	9.5742
0.9643	0.7639	9.5282
0.9679	0.6323	9.5264
1.0014	0.7304	9.5048
0.9799	0.7095	9.5497
1.0403	0.6802	9.5856
0.9930	0.7095	9.5449
0.9834	0.7160	9.5318
1.0349	0.6969	9.5659
0.9781	0.5940	9.5820
0.9918	0.7149	9.5659
1.0157	0.8207	9.4785
1.0074	0.7041	9.5204
1.0193	0.6754	9.5760
0.9763	0.8064	9.4911
0.9852	0.6161	9.5377
1.0056	0.6975	9.6131
0.9254	0.7914	9.5563
0.9404	0.7962	9.5060
0.9715	0.6359	9.5934
0.9595	0.7603	9.6789
0.9476	0.6939	9.6412
0.9505	0.6658	9.5276
0.9511	0.6502	9.6323
0.9715	0.6808	9.5629
0.9631	0.7029	9.4731
0.9870	0.5970	9.5575
0.9571	0.6897	9.5252
0.9631	0.7041	9.4660
0.9368	0.6407	9.5539
0.7813	0.6239	9.5587
0.8608	0.6652	9.5527
0.8500	0.6502	9.5629
0.8291	0.6287	9.5946
0.7717	0.6006	9.6269
0.8506	0.6646	9.5611
0.8429	0.6437	9.6376
0.9200	0.5904	9.6209
0.9326	0.7041	9.5162
0.9176	0.6538	9.5623
0.9912	0.6407	9.5473
0.9386	0.6586	9.5216
0.9158	0.6502	9.5054
0.9870	0.7226	9.4899
0.9781	0.6455	9.5312
1.0193	0.6556	9.5461
1.0110	0.7555	9.5563
0.9667	0.7160	9.5575
1.0277	0.7035	9.6113
0.9661	0.7543	9.5856
0.9834	0.7705	9.5054
1.0157	0.7178	9.5437
0.9446	0.6855	9.6035
0.9505	0.7836	9.5892
0.9906	0.7304	9.5150
0.9709	0.6311	9.5527
1.0122	0.8847	9.5491
1.0157	0.7466	9.5682
1.0558	0.6640	9.6681
0.9972	0.6473	9.6269
0.9583	0.7119	9.4522
0.9350	0.5797	9.4630
0.9553	0.5761	9.4594
0.9416	0.7890	9.5395
1.0247	0.7633	9.5216
1.0235	0.7376	9.5958
0.9523	0.7597	9.5802
0.9667	0.8530	9.4678
0.9284	0.7208	9.5868
0.9428	0.6173	9.6580
0.9398	0.7944	9.5144
0.9541	0.6383	9.4953
1.0421	0.6760	9.5850
0.9440	0.6849	9.5850
0.9685	0.7089	9.4965
0.9470	0.6742	9.5533
0.8943	0.5832	9.6293
0.9553	0.7226	9.5449
0.9499	0.7119	9.4839
1.0146	0.6353	9.5521
1.0397	0.6963	9.5671
0.9978	0.7388	9.5228
1.0092	0.6891	9.7752
0.9206	0.7011	9.5814
0.9123	0.7346	9.5443
0.9350	0.7119	9.5527
0.9649	0.6855	9.5270
0.9799	0.7322	9.5407
0.9978	0.7364	9.5114
1.0151	0.7238	9.5617
0.9559	0.6544	9.4965
0.8979	0.7418	9.4474
0.8973	0.7657	9.5928
0.9505	0.6299	9.6233
0.9577	0.6347	9.6227
0.9846	0.6891	9.5988
1.0086	0.6556	9.5102
0.9978	0.6921	9.6293
0.9135	0.6413	9.5736
0.9200	0.7890	9.5096
0.9308	0.6042	9.6107
0.9242	0.5832	9.5910
0.9236	0.7771	9.5342
0.9164	0.6867	9.4588
0.9613	0.6610	9.5904
0.9314	0.6706	9.6616
0.9607	0.7579	9.6161
1.0050	0.6981	9.5928
0.9511	0.6245	9.5796
0.9948	0.7430	9.5330
1.0199	0.7077	9.5180
0.9739	0.6090	9.6059
0.9757	0.7759	9.5407
0.9326	0.7352	9.4755
0.9691	0.5904	9.5306
0.9476	0.6383	9.5802
0.9649	0.7878	9.5754
1.0283	0.7448	9.5724
1.0068	0.7214	9.5377
0.9822	0.8016	9.5497
1.0193	0.7848	9.4785
1.0516	0.6790	9.6616
0.9625	0.6730	9.6035
0.9757	0.7813	9.4576
0.9123	0.6909	9.5054
0.9523	0.6024	9.6035
0.9404	0.7537	9.5886
0.9422	0.6969	9.5066
0.9954	0.6449	9.5545
0.8913	0.6395	9.5886
0.9416	0.6879	9.5593
0.9362	0.6993	9.5892
0.9152	0.6006	9.6335
0.9523	0.9152	9.5090
0.9272	0.7346	9.5252
0.9918	0.6526	9.5916
0.9667	0.7232	9.5928
0.9434	0.7214	9.5497
1.0080	0.6873	9.6006
0.9434	0.6574	9.5982
0.9434	0.6867	9.4719
0.9793	0.7017	9.5114
0.9715	0.5964	9.5306
0.9452	0.6861	9.5419
0.9260	0.7322	9.4869
0.9595	0.7017	9.5336
0.9649	0.6520	9.5611
0.9332	0.7334	9.5479
0.9559	0.7573	9.5922
1.0080	0.7089	9.5802
0.9655	0.6802	9.5742
0.9589	0.6861	9.5659
0.9876	0.6802	9.4743
0.9595	0.6150	9.6287
0.9386	0.6945	9.5880
0.9099	0.7878	9.5294
0.9111	0.4857	9.5042
0.9464	0.6407	9.5671
0.9517	0.7950	9.5790
0.9858	0.7083	9.6012
1.0241	0.6700	9.5946
0.9308	0.7454	9.5575
1.0229	0.7274	9.5288
0.9751	0.5815	9.6574
0.9266	0.6233	9.5479
0.9356	0.8309	9.4516
0.9589	0.5677	9.5270
0.9613	0.5420	9.6047
0.9446	0.7998	9.5694
0.9918	0.7711	9.4959
1.0492	0.6987	9.6095
1.0068	0.8118	9.6125
1.0086	0.8459	9.5342
1.0666	0.6993	9.6089
0.9745	0.6323	9.6604
0.9757	0.7747	9.5467
1.0092	0.6156	9.5114
0.9763	0.5689	9.5539
0.8997	0.7741	9.5120
0.9392	0.7579	9.4438
0.9625	0.6114	9.6227
0.9194	0.7364	9.5473
0.8806	0.8369	9.4779
0.9900	0.6993	9.5449
1.0313	0.6167	9.6939
0.9482	0.7137	9.5641
1.0223	0.7208	9.4797
0.9870	0.6167	9.6670
0.8937	0.7047	9.5706
0.9332	0.6921	9.4672
0.9589	0.6102	9.5934
0.9607	0.7220	9.5653
0.9188	0.8159	9.4731
1.0475	0.7023	9.5024
0.9368	0.6431	9.5557
0.9828	0.7902	9.5497
1.0492	0.8548	9.4695
1.0588	0.7035	9.6257
0.9583	0.6616	9.5395
0.9428	0.7238	9.4301
0.9230	0.6167	9.7609
0.9350	0.6096	9.6616
0.9129	0.6987	9.5814
0.9757	0.6592	9.5413
0.9775	0.6496	9.4881
0.9368	0.7489	9.5102
1.0062	0.7819	9.5276
1.0044	0.7346	9.6017
0.9200	0.6855	9.6185
0.9117	0.7567	9.5078
0.9811	0.6520	9.6478
0.9547	0.5731	9.6550
0.9356	0.7519	9.4648
0.9063	0.7454	9.4971
0.9464	0.6191	9.5342
0.9200	0.6508	9.5952
0.9087	0.6640	9.5718
0.9948	0.6927	9.5491
0.9440	0.6461	9.6071
0.9374	0.7095	9.5515
0.9751	0.7549	9.5431
0.9464	0.6311	9.6131
0.9487	0.7119	9.5383
0.9290	0.7663	9.5934
0.9876	0.6610	9.5802
0.9727	0.7166	9.5712
0.9123	0.7352	9.5192
1.0235	0.7143	9.5282
0.9751	0.5755	9.5874
0.9655	0.7202	9.5617
0.9846	0.8847	9.4785
1.0116	0.7196	9.5497
1.0301	0.6574	9.6251
0.9775	0.7986	9.5641
0.9972	0.7262	9.5844
0.9667	0.6413	9.6089
0.9404	0.7627	9.5952
0.9464	0.7280	9.5060
0.9906	0.5677	9.5910
0.9505	0.6586	9.6454
0.9565	0.7705	9.5413
1.0175	0.6401	9.5389
0.9458	0.6287	9.5599
0.8931	0.8399	9.4935
0.9440	0.7765	9.5264
0.9978	0.5677	9.6275
0.9822	0.7717	9.5647
0.9404	0.8453	9.4319
1.0570	0.6921	9.5677
1.0247	0.6389	9.6699
0.9535	0.7938	9.5940
1.0086	0.7226	9.5784
0.9218	0.5880	9.6406
0.9027	0.7214	9.5407
0.9493	0.7274	9.3792
0.9733	0.5797	9.5964
0.9338	0.6670	9.5246
0.8943	0.8070	9.5162
1.0062	0.6138	9.5611
0.9607	0.6245	9.5820
0.8722	0.7878	9.5856
0.9493	0.7663	9.5730
0.9828	0.6640	9.7166
0.8973	0.7208	9.6006
0.9733	0.8088	9.4552
1.0457	0.6239	9.6215
0.9978	0.6257	9.6424
1.0343	0.7448	9.4516
1.0169	0.6580	9.5347
1.0211	0.6413	9.5162
0.9452	0.7627	9.5210
0.9703	0.6981	9.4845
1.0630	0.7160	9.5718
0.9787	0.7298	9.6628
1.0199	0.7860	9.5096
0.9990	0.6975	9.6071
0.9075	0.5767	9.5700
0.8877	0.7352	9.4851
0.8483	0.6855	9.5730
0.8818	0.6413	9.6388
0.8608	0.7406	9.4815
0.8895	0.7137	9.4731
0.9631	0.6502	9.5916
0.9308	0.6353	9.6245
0.9296	0.7406	9.6197
0.9613	0.7370	9.5796
0.9655	0.5982	9.6149
0.9685	0.5922	9.5222
0.9972	0.6676	9.5611
1.0116	0.6084	9.5694
0.9607	0.6646	9.5641
0.9260	0.7495	9.5539
0.9811	0.6814	9.6000
1.0157	0.6496	9.5126
0.9452	0.6969	9.5072
1.0151	0.7675	9.3684
0.9906	0.6897	9.5832
0.9392	0.6580	9.6023
0.9188	0.8548	9.5401
0.9434	0.6891	9.5826
0.9290	0.5940	9.5808
0.9404	0.7358	9.5090
0.9440	0.7202	9.5192
1.0008	0.6640	9.5988
0.9212	0.7256	9.5922
0.9559	0.8411	9.5635
1.0385	0.6867	9.4881
0.9763	0.6156	9.5557
0.9930	0.7280	9.5659
1.0247	0.6652	9.5766
0.9924	0.5641	9.6239
0.9290	0.7376	9.5605
0.9398	0.7298	9.4707
0.9930	0.6072	9.5371
0.9763	0.6490	9.5318
0.9212	0.8584	9.5132
1.0134	0.7131	9.5246
0.9470	0.6502	9.6305
0.9045	0.7687	9.6059
0.9876	0.8052	9.4384
0.9864	0.6144	9.6394
0.9685	0.6975	9.6101
0.9069	0.7836	9.4821
0.9697	0.5868	9.5593
0.9374	0.6425	9.5922
0.8668	0.8040	9.5605
0.9852	0.7591	9.4851
0.9900	0.5779	9.5467
0.9529	0.7489	9.5246
1.0295	0.8052	9.4887
1.0510	0.6461	9.6059
1.0038	0.6736	9.5808
0.9350	0.7771	9.4133
0.9906	0.6006	9.5772
0.9763	0.5372	9.6323
0.9230	0.7507	9.5832
0.9511	0.7765	9.4103
0.9954	0.6837	9.5545
0.9775	0.9182	9.6191
0.9942	0.8728	9.5377
1.0863	0.7669	9.5868
1.0229	0.6873	9.5001
1.0223	0.8488	9.5347
1.0594	0.7460	9.5240
1.0510	0.6347	9.5533
0.9775	0.8088	9.4779
0.9733	0.7675	9.4283
1.0253	0.6395	9.5682
0.9733	0.6843	9.5838
0.9039	0.7980	9.4438
0.9834	0.7077	9.5886
0.9673	0.5372	9.7160
0.9242	0.7238	9.6263
0.9511	0.7543	9.4989
1.0008	0.6215	9.6251
0.9278	0.6760	9.6000
0.9278	0.7525	9.5084
0.9811	0.6251	9.6430
0.9075	0.6347	9.6179
0.8853	0.7669	9.4217
0.9027	0.6556	9.5114
0.9739	0.6054	9.5401
0.8656	0.7125	9.5892
0.9960	0.7848	9.5252
1.0427	0.6407	9.7435
0.9517	0.6359	9.6293
0.9691	0.7860	9.4408
0.9392	0.6389	9.5336
0.9523	0.6114	9.5467
0.9015	0.7615	9.5036
0.9571	0.7047	9.5090
1.0433	0.6275	9.6155
0.9894	0.7149	9.6281
1.0044	0.7765	9.4540
1.0433	0.6909	9.5443
0.9386	0.6156	9.5623
0.9266	0.7406	9.5587
0.9601	0.6945	9.7555
0.9685	0.6203	9.6119
0.9511	0.8542	9.4337
0.9410	0.7980	9.4492
0.9900	0.6096	9.5359
0.9278	0.6843	9.5114
0.8590	0.7155	9.5066
0.9739	0.6796	9.6753
0.9470	0.6239	9.6496
0.9458	0.7208	9.4905
1.0104	0.7717	9.4672
0.9667	0.5677	9.5910
0.9673	0.7543	9.5940
0.9380	0.7202	9.5503
0.9571	0.6114	9.6592
0.9230	0.6496	9.5353
0.8949	0.7489	9.5090
1.0409	0.6293	9.5820
1.0217	0.6269	9.5018
0.9212	0.7884	9.4546
0.9745	0.7872	9.5120
1.0128	0.7011	9.6382
0.9499	0.7980	9.5712
0.9571	0.8764	9.4642
1.0026	0.6867	9.6041
1.0008	0.6401	9.6795
0.9308	0.7615	9.5024
0.9763	0.6120	9.6460
0.9769	0.5821	9.5988
0.9284	0.6939	9.5617
0.9673	0.6784	9.5312
1.0558	0.6784	9.5497
0.9631	0.6790	9.5485
0.9912	0.8686	9.5324
0.9966	0.6347	9.6341
0.9224	0.6628	9.6747
0.9033	0.7872	9.4043
0.9170	0.6772	9.5180
0.9625	0.6419	9.5671
0.8961	0.7872	9.5018
0.8901	0.7950	9.5324
0.9846	0.6718	9.5605
0.9272	0.6526	9.6173
0.8973	0.6808	9.4881
0.9775	0.7226	9.5485
0.9541	0.6556	9.6173
0.9673	0.7639	9.5593
0.9996	0.7741	9.5138
0.9996	0.6126	9.5383
1.0271	0.7334	9.5892
1.0427	0.7824	9.4815
1.0690	0.6443	9.5820
1.0002	0.6622	9.5216
0.7717	0.7507	9.5144
0.9942	0.6760	9.5904
0.9757	0.6401	9.6424
0.8943	0.8399	9.5222
0.9601	0.8273	9.4594
0.9924	0.6814	9.5401
0.9583	0.6604	9.6185
0.9093	0.8076	9.4977
0.9470	0.6903	9.6897
0.9182	0.5826	9.6012
0.9123	0.6945	9.5132
0.9284	0.6790	9.6358
0.9679	0.6108	9.5581
0.9422	0.7519	9.5491
0.9320	0.7304	9.5443
1.0349	0.6808	9.5736
0.9380	0.6084	9.6335
0.9709	0.7095	9.5742
0.9470	0.6233	9.6239
0.9051	0.5707	9.5772
0.8746	0.7801	9.4773
0.9278	0.8907	9.4785
1.0217	0.7053	9.5479
0.9763	0.7866	9.5060
0.9242	0.7962	9.4462
1.0199	0.7017	9.6113
0.9840	0.6431	9.6418
0.9188	0.7884	9.5276
0.9942	0.7531	9.4678
1.0014	0.6419	9.5407
0.9793	0.6754	9.5659
0.9643	0.7986	9.5359
1.0026	0.6574	9.6376
0.9374	0.6724	9.5952
0.9224	0.7316	9.5342
0.9822	0.7149	9.5599
1.0457	0.7107	9.5653
0.9398	0.7854	9.5533
1.0140	0.8052	9.5150
1.0528	0.6831	9.5838
0.9296	0.7107	9.6370
0.9344	0.8159	9.5090
0.9697	0.6359	9.7764
0.9727	0.5276	9.5868
0.9272	0.7310	9.4965
0.9852	0.7208	9.4564
1.0229	0.6437	9.5700
0.9571	0.7023	9.5497
0.9619	0.7424	9.5425
1.0301	0.6969	9.6053
0.9428	0.6897	9.6436
0.9476	0.7759	9.6000
0.9715	0.7962	9.5802
0.9583	0.5928	9.5336
0.9290	0.7597	9.5007
0.9476	0.7418	9.5377
0.9583	0.6473	9.6723
0.9147	0.6586	9.5688
0.8770	0.7172	9.4797
1.0062	0.6383	9.5347
0.9799	0.5856	9.5132
0.9302	0.7645	9.5162
1.0134	0.6185	9.5036
1.0259	0.6359	9.6418
0.9679	0.6909	9.5982
0.9523	0.7591	9.4618
0.9948	0.6245	9.5647
0.9476	0.6114	9.5790
0.9063	0.7424	9.4791
0.9290	0.7178	9.5479
1.0020	0.6748	9.5383
0.9242	0.8052	9.5282
0.9793	0.7872	9.5024
1.0696	0.7298	9.5790
0.9332	0.6748	9.6592
0.9721	0.7896	9.5910
0.9643	0.6855	9.6179
0.9691	0.5826	9.5515
0.9302	0.7747	9.5126
0.9799	0.7322	9.4145
1.0684	0.6628	9.5419
0.9535	0.6933	9.4755
0.9440	0.7693	9.5036
1.0151	0.6580	9.7011
0.9529	0.5815	9.6089
0.9188	0.7836	9.5252
0.9852	0.7765	9.4684
1.0271	0.6700	9.6167
0.9278	0.6473	9.6358
0.9482	0.7962	9.4941
0.9404	0.6580	9.6819
0.9045	0.6030	9.5892
0.8674	0.7705	9.5569
0.9248	0.6891	9.5479
1.0217	0.6963	9.5682
0.9470	0.7519	9.5856
1.0217	0.7705	9.5102
1.0169	0.6377	9.6071
0.9482	0.5713	9.6053
0.9260	0.7484	9.5342
0.9404	0.6329	9.5491
0.9894	0.6473	9.6107
0.9123	0.7699	9.4785
0.9278	0.7537	9.4474
1.0516	0.6114	9.6167
0.9338	0.6640	9.5982
0.9254	0.8100	9.5048
0.9894	0.7771	9.4821
0.9787	0.6670	9.5641
0.9314	0.7771	9.5371
0.9763	0.8363	9.5001
1.0002	0.6407	9.6101
0.9278	0.6592	9.6059
0.9051	0.7184	9.5084
0.9637	0.6485	9.5754
0.9948	0.6150	9.6017
0.9326	0.7460	9.5120
1.0098	0.7328	9.5222
1.0409	0.6479	9.5551
0.9284	0.6712	9.6729
0.9817	0.7442	9.5970
1.0002	0.5198	9.6065
0.9888	0.5593	9.5736
0.9278	0.7884	9.4343
0.9834	0.7669	9.3649
0.9894	0.6443	9.5940
0.8901	0.7525	9.4959
0.8465	0.7890	9.4761
0.9464	0.6682	9.5802
0.9511	0.7035	9.6747
0.9039	0.8291	9.5694
1.0259	0.8148	9.4911
1.0391	0.6197	9.6765
0.9667	0.6508	9.6221
0.9852	0.8094	9.5096
0.9817	0.6281	9.5724
0.9834	0.5904	9.5629
0.9087	0.7238	9.4468
0.9840	0.6706	9.5168
1.0486	0.7472	9.6335
0.9721	0.7065	9.6382
1.0199	0.8010	9.4887
1.0528	0.7555	9.5904
0.9888	0.6676	9.5874
0.9745	0.8219	9.5868
0.9769	0.8064	9.6508
0.9834	0.6239	9.6484
0.9075	0.7071	9.5114
0.9499	0.7436	9.4779
0.9882	0.6144	9.5838
0.9912	0.5928	9.5174
0.8728	0.7394	9.4803
0.9535	0.6646	9.5330
0.9464	0.5886	9.6269
0.8925	0.6784	9.6604
0.9200	0.7765	9.5850
0.9996	0.5946	9.5820
0.9721	0.5198	9.5569
0.8668	0.7178	9.5007
0.9356	0.7705	9.5222
0.9691	0.5779	9.5928
0.8949	0.7017	9.5013
0.8907	0.8004	9.4378
1.0080	0.6975	9.5359
1.0211	0.6814	9.6556
0.9589	0.7531	9.6000
1.0600	0.8405	9.5700
1.0839	0.5743	9.6035
0.9972	0.6275	9.6041
0.9619	0.7759	9.4426
0.9535	0.7029	9.5617
0.9793	0.6096	9.6622
0.9164	0.7489	9.5330
0.9655	0.7723	9.4965
1.0504	0.6132	9.5533
1.0134	0.6825	9.5826
0.9464	0.8249	9.4977
0.9978	0.7723	9.5413
0.9834	0.6766	9.5910
0.9087	0.6766	9.5922
0.9344	0.8584	9.4791
0.9763	0.6879	9.5617
0.9697	0.6269	9.5772
0.8907	0.7418	9.4402
0.9200	0.6508	9.5599
0.9434	0.6221	9.6705
0.8907	0.6544	9.5844
0.9242	0.7669	9.4815
0.9733	0.6616	9.5060
1.0002	0.5689	9.5964
0.9236	0.7166	9.5371
0.9278	0.7974	9.5132
0.9846	0.6323	9.6119
0.9613	0.5803	9.5635
0.9111	0.7771	9.4504
0.9476	0.7196	9.5623
0.9996	0.6377	9.6107
0.9236	0.7543	9.5682
0.9422	0.6126	9.5096
1.0313	0.7125	9.5617
1.0223	0.6520	9.5563
0.9601	0.7244	9.4827
0.9733	0.7962	9.5096
1.0044	0.6341	9.6640
0.9476	0.6263	9.5838
0.8818	0.7400	9.5042
0.9386	0.6796	9.5007
0.9858	0.5587	9.5599
0.9326	0.6688	9.5365
0.9571	0.7609	9.5641
1.0128	0.6658	9.5952
0.9930	0.7005	9.5485
0.9081	0.7376	9.5330
0.9978	0.7819	9.5677
0.9924	0.6778	9.6376
0.9805	0.6550	9.5431
0.9631	0.8100	9.4528
0.9338	0.7095	9.5174
0.9709	0.6317	9.5718
0.9308	0.6909	9.5910
0.9769	0.7107	9.5772
1.0223	0.6658	9.5581
0.9846	0.6873	9.5042
0.9404	0.7400	9.4767
0.9769	0.7256	9.5694
0.9703	0.6479	9.5874
0.9834	0.6179	9.5922
0.9565	0.7322	9.5395
0.9356	0.7208	9.5377
0.9290	0.5707	9.5479
0.9027	0.6921	9.5665
0.9087	0.7101	9.5826
0.9482	0.7059	9.5766
0.9775	0.7537	9.5192
0.9745	0.7406	9.4893
1.0367	0.7884	9.5527
1.0271	0.7011	9.5892
1.0451	0.6957	9.6191
0.9799	0.7280	9.5497
0.9685	0.6921	9.5264
0.9631	0.5940	9.5748
0.9434	0.6353	9.5694
0.9727	0.7166	9.5808
0.9374	0.6598	9.5706
0.9679	0.6879	9.5174
0.9224	0.6897	9.5288
0.9876	0.7322	9.5371
0.9559	0.7663	9.5581
0.9721	0.7017	9.6119
0.9559	0.7639	9.5748
0.9212	0.7047	9.5365
0.9314	0.6622	9.5581
0.9535	0.6610	9.5521
0.9212	0.7131	9.5766
0.9523	0.6802	9.5306
0.9882	0.7131	9.5563
1.0373	0.7059	9.5246
0.9984	0.6951	9.5880
1.0427	0.7346	9.5694
1.0098	0.6855	9.6059
0.9380	0.6275	9.5563
0.9320	0.7119	9.5282
0.9326	0.5695	9.5868
0.9583	0.6646	9.5718
0.8979	0.6873	9.5665
0.9368	0.6574	9.5742
0.9559	0.6790	9.5898
0.9129	0.6694	9.5407
0.9338	0.7184	9.5940
0.9344	0.7160	9.5605
0.9715	0.7711	9.5916
0.9326	0.7053	9.5605
0.9721	0.7513	9.5497
0.9954	0.6885	9.5563
0.9637	0.6879	9.5688
0.9416	0.7549	9.5078
0.9655	0.6670	9.5587
0.9858	0.6724	9.5635
0.9775	0.7190	9.5168
0.9972	0.6634	9.5736
1.0337	0.7322	9.5551
0.9637	0.6933	9.5641
0.9482	0.7047	9.5318
0.9517	0.6730	9.5940
0.9320	0.6389	9.5575
0.9051	0.6879	9.5665
0.8919	0.7023	9.5222
0.9541	0.6766	9.5976
0.9290	0.6245	9.5563
0.9511	0.7693	9.5036
0.9691	0.7005	9.5497
0.9751	0.6748	9.6173
0.9793	0.7591	9.5276
0.9936	0.6999	9.5246
1.0092	0.6951	9.5515
0.9625	0.6479	9.5545
0.9757	0.6377	9.5455
0.9685	0.6825	9.5473
0.9248	0.6861	9.5880
0.9637	0.6766	9.5706
0.9751	0.7400	9.5533
0.9757	0.7484	9.5198
0.9834	0.6520	9.5796
0.9978	0.7011	9.5611
0.9942	0.7615	9.5437
0.9362	0.6981	9.5395
0.9476	0.6831	9.5371
0.9458	0.5922	9.6077
0.9362	0.7041	9.5653
0.9254	0.6957	9.5629
0.9601	0.5874	9.5940
0.9619	0.6610	9.5515
0.9254	0.7334	9.4654
0.9703	0.6945	9.5575
0.9900	0.6724	9.5922
0.9817	0.7657	9.5617
0.9476	0.8058	9.5240
0.9703	0.7292	9.5342
0.9978	0.6766	9.5599
0.9631	0.6963	9.5712
0.9380	0.7992	9.4666
0.9984	0.6766	9.5515
0.9787	0.6514	9.5491
0.9673	0.7400	9.5210
0.9900	0.7178	9.5503
1.0343	0.6742	9.5742
0.9793	0.6742	9.5413
0.9535	0.7328	9.5156
0.9739	0.6879	9.5700
0.9487	0.6167	9.6161
0.9440	0.6251	9.5988
0.9212	0.7525	9.5168
0.9338	0.7340	9.5120
0.9434	0.5761	9.5515
0.9751	0.6604	9.5527
0.9505	0.7663	9.5581
0.9362	0.6999	9.5736
0.9625	0.7178	9.5276
0.9464	0.7047	9.5258
0.9308	0.7149	9.5635
0.9476	0.6891	9.6029
0.9846	0.6329	9.6604
0.9733	0.7286	9.5928
0.9188	0.7430	9.4857
0.9733	0.4678	9.5898
0.9685	0.5761	9.6592
0.9721	0.7143	9.5712
0.9631	0.7107	9.5425
1.0068	0.6203	9.5276
0.9817	0.6604	9.5515
0.9248	0.6933	9.5300
0.9715	0.7376	9.5820
0.9458	0.6502	9.5916
0.9553	0.6520	9.5694
0.7705	0.8255	9.4378
0.9703	0.7651	9.5162
0.9942	0.6742	9.5874
0.9643	0.7280	9.5838
0.9793	0.7848	9.5431
0.9924	0.7238	9.5515
0.9876	0.6963	9.5437
0.9643	0.6993	9.5575
0.9446	0.6831	9.5611
0.9619	0.6616	9.5330
0.9553	0.5073	9.6125
0.9416	0.6514	9.5623
0.8800	0.7160	9.4528
0.8841	0.6126	9.5682
0.9655	0.6419	9.6221
0.9176	0.7178	9.5754
0.9637	0.7771	9.5641
1.0038	0.7298	9.5784
1.0104	0.7316	9.6125
0.9523	0.7472	9.5677
0.9553	0.7053	9.5497
0.9673	0.6532	9.5898
0.9320	0.5791	9.6000
0.9218	0.7382	9.5132
0.9458	0.6969	9.5168
0.9918	0.5659	9.5808
0.9978	0.6652	9.5647
0.9936	0.6831	9.5581
0.9942	0.7346	9.5419
0.9607	0.7214	9.5300
0.9631	0.7065	9.5461
0.9565	0.7436	9.5802
0.9613	0.7238	9.5371
0.9643	0.6694	9.5820
0.9547	0.6957	9.5653
0.9218	0.7842	9.5168
0.9200	0.6317	9.5688
0.9685	0.6586	9.6065
0.9380	0.6891	9.5413
0.9374	0.7083	9.5581
1.0014	0.7358	9.5096
0.9709	0.6718	9.5665
0.9805	0.6538	9.5844
0.9374	0.7119	9.5647
0.9817	0.4630	9.5569
0.9290	0.6628	9.5623
0.9069	0.6670	9.5198
0.9715	0.6933	9.5826
0.9422	0.6150	9.5724
0.9643	0.7406	9.4815
0.9870	0.7412	9.5539
1.0020	0.7836	9.5682
0.9960	0.8165	9.5395
0.9924	0.7244	9.5611
1.0187	0.7549	9.5611
0.9715	0.7406	9.5491
0.9912	0.6652	9.5617
0.9781	0.6975	9.5443
0.9482	0.6455	9.5479
0.9440	0.6060	9.5641
0.9452	0.6413	9.5952
0.9499	0.7208	9.5168
0.9499	0.6490	9.5808
0.9930	0.6796	9.5682
0.9936	0.7370	9.5569
0.9571	0.7238	9.5545
0.9763	0.7549	9.5497
0.9535	0.6407	9.5832
0.9260	0.6969	9.5892
0.8889	0.7316	9.5252
0.9434	0.6550	9.5700
0.9541	0.6209	9.6023
0.9290	0.6987	9.4929
0.9894	0.7143	9.5324
0.9846	0.7155	9.5294
0.9793	0.6628	9.5425
0.9458	0.7143	9.5401
0.9577	0.7220	9.5204
0.9739	0.7478	9.5587
0.9817	0.5958	9.6532
1.0235	0.7107	9.5611
0.9302	0.7860	9.4989
0.9404	0.6413	9.5527
0.9870	0.6371	9.6137
0.8991	0.6796	9.5521
0.9158	0.7113	9.5150
0.9476	0.7454	9.5288
1.0163	0.6443	9.5724
1.0092	0.6831	9.5910
0.9912	0.7657	9.5162
1.0026	0.7448	9.5306
0.9577	0.6281	9.5994
0.9266	0.6610	9.5928
0.9188	0.7065	9.5258
0.8889	0.6347	9.5210
0.9793	0.6598	9.5132
0.9769	0.6269	9.6023
0.9763	0.7424	9.5054
0.9194	0.8315	9.5084
0.9595	0.7053	9.5976
0.9751	0.6299	9.6287
0.9392	0.7484	9.5826
0.9763	0.7543	9.5216
0.9709	0.6963	9.5593
1.0062	0.6837	9.5617
0.9924	0.6341	9.5928
0.9290	0.6975	9.5509
0.9458	0.7370	9.5300
0.9870	0.5563	9.6299
0.9661	0.6526	9.5706
0.9470	0.7310	9.4636
0.9601	0.7232	9.4971
0.9846	0.6933	9.5383
0.9805	0.7137	9.5647
0.9828	0.7328	9.6012
0.9571	0.8171	9.5306
0.9739	0.7890	9.5246
0.9942	0.6885	9.6113
0.9535	0.6772	9.5874
0.9511	0.7412	9.5252
0.9224	0.6598	9.5324
0.9805	0.6078	9.5790
0.9781	0.6790	9.5222
0.9344	0.6604	9.5958
0.9924	0.7525	9.5186
0.9493	0.6574	9.5569
0.9541	0.6179	9.5551
0.9428	0.6987	9.5772
0.9332	0.7155	9.5605
0.9464	0.6891	9.5336
0.9631	0.6724	9.5503
0.9649	0.6951	9.5581
0.9051	0.6796	9.6388
0.9493	0.7376	9.5389
0.9428	0.7089	9.5485
0.8979	0.6317	9.5282
0.9601	0.6790	9.5605
0.9619	0.7202	9.5754
0.9751	0.6652	9.5688
1.0211	0.7489	9.5054
0.9751	0.7005	9.5353
0.9577	0.6778	9.5808
0.9709	0.7406	9.5838
0.9625	0.6562	9.5545
0.9398	0.6688	9.5377
0.9428	0.6610	9.5545
0.9559	0.6700	9.5569
0.9422	0.6568	9.5700
0.9781	0.6939	9.5629
0.9470	0.7765	9.5132
0.9230	0.6598	9.6053
1.0193	0.7286	9.5772
0.9476	0.7334	9.5641
0.9362	0.6831	9.5437
0.9876	0.7424	9.5228
0.9254	0.6616	9.5515
0.9769	0.6263	9.5742
0.9529	0.6933	9.5898
0.9517	0.7298	9.5036
0.9769	0.7059	9.5407
0.9984	0.6951	9.5748
0.9948	0.6945	9.5539
0.9775	0.6670	9.5677
0.9410	0.7202	9.5467
0.9063	0.7149	9.5018
0.9434	0.5707	9.5862
0.9487	0.6431	9.6006
0.8734	0.7244	9.5461
0.9141	0.6682	9.5611
0.9188	0.7196	9.5395
0.9452	0.6706	9.5778
1.0181	0.6443	9.6029
0.9392	0.7196	9.5694
0.9458	0.7537	9.5240
0.9817	0.6742	9.5766
0.9673	0.5838	9.6029
0.9721	0.6628	9.5886
0.9362	0.6837	9.5653
0.9075	0.6820	9.5306
0.9416	0.7196	9.5551
0.9990	0.6574	9.5982
1.0211	0.6867	9.5635
0.9930	0.8004	9.5078
0.9757	0.7866	9.4899
0.9655	0.7119	9.5617
1.0020	0.6658	9.5904
1.0074	0.7280	9.5467
0.9135	0.7065	9.5210
0.9099	0.7172	9.5318
0.9428	0.6993	9.5288
0.9577	0.5515	9.6095
0.9948	0.7047	9.5808
0.9254	0.7346	9.5270
0.9511	0.6574	9.5778
0.9781	0.7466	9.5724
0.9553	0.6407	9.5856
1.0397	0.6479	9.5916
0.9452	0.7053	9.5389
0.9224	0.6843	9.5276
0.9577	0.6760	9.5850
1.0588	0.5815	9.6023
0.9589	0.6514	9.5724
0.9547	0.7184	9.5461
0.9272	0.6419	9.5814
0.9493	0.7280	9.5629
0.9212	0.6664	9.5587
0.9864	0.6359	9.5904
0.9206	0.7340	9.5467
0.9482	0.6927	9.5407
0.9852	0.6736	9.5688
0.9368	0.6682	9.6149
0.9577	0.6861	9.5467
0.9757	0.7370	9.5413
0.9188	0.6514	9.5533
0.9631	0.7113	9.5377
0.9697	0.6933	9.5958
0.9972	0.6616	9.5748
0.9846	0.7370	9.5270
0.9966	0.6933	9.5288
1.0217	0.7077	9.5192
0.9302	0.7268	9.5365
0.9667	0.7244	9.5832
0.9356	0.6963	9.5814
0.9164	0.6502	9.5545
0.9529	0.6257	9.5928
0.9523	0.6550	9.5898
0.9817	0.7023	9.5766
0.9876	0.6550	9.5898
0.9135	0.7358	9.5377
0.9398	0.6610	9.5724
0.9374	0.6431	9.5790
0.9200	0.6664	9.5706
0.9721	0.6766	9.5688
0.9739	0.7155	9.5449
0.9416	0.7149	9.5425
0.9464	0.6090	9.5706
0.9200	0.6897	9.5503
0.9410	0.7047	9.5575
0.9571	0.6628	9.5671
0.9906	0.7460	9.5718
1.0128	0.6724	9.5641
0.9954	0.6849	9.5700
0.9194	0.7143	9.5503
0.9242	0.6742	9.5790
0.9452	0.6544	9.5551
0.9350	0.7172	9.5976
0.9422	0.6287	9.5425
0.9410	0.6712	9.5527
0.9344	0.6820	9.5509
0.9559	0.6927	9.5838
0.9673	0.6760	9.5688
0.9936	0.7460	9.5742
1.0002	0.6544	9.5527
0.9870	0.7286	9.5449
0.9559	0.6831	9.5473
0.9529	0.6730	9.5706
0.9565	0.6580	9.5653
0.9691	0.6951	9.5694
0.9493	0.6610	9.5557
0.9595	0.6849	9.5635
0.9039	0.6718	9.5599
0.9559	0.7083	9.5635
0.9206	0.6939	9.5521
0.9840	0.7095	9.5377
0.9757	0.6873	9.5611
0.9852	0.6820	9.5383
0.9422	0.7023	9.5671
0.9147	0.6933	9.5838
0.9499	0.6556	9.5862
0.9099	0.6520	9.5700
0.9793	0.6688	9.5276
0.9547	0.6891	9.5545
0.9679	0.6724	9.5551
0.9643	0.6814	9.5724
0.9637	0.6849	9.5796
0.9811	0.7244	9.5515
0.9464	0.6927	9.5587
0.9942	0.6873	9.5479
0.9637	0.6778	9.5736
0.9607	0.6843	9.5569
0.9464	0.6957	9.5581
0.9416	0.6688	9.5629
0.9559	0.6760	9.5688
0.9422	0.6945	9.5671
0.9607	0.6814	9.5617
0.9673	0.6885	9.5533
0.9667	0.6993	9.5575
0.9882	0.6825	9.5772
0.9547	0.6867	9.5772
0.9446	0.6814	9.5479
0.9410	0.6969	9.5629
0.9487	0.6927	9.5629
0.9817	0.6772	9.5700
0.9721	0.6682	9.5772
0.9607	0.6682	9.5593
0.9452	0.6843	9.5629
0.9386	0.6802	9.5653
0.9505	0.6724	9.5677
0.9553	0.6879	9.5677
0.9787	0.7035	9.5647
0.9751	0.6939	9.5688
0.9637	0.6849	9.5694
0.9434	0.6760	9.5641
0.9374	0.6837	9.5659
0.9493	0.6831	9.5611
0.9655	0.6706	9.5754
0.9655	0.6688	9.5611
0.9613	0.6963	9.5449
0.9547	0.7071	9.5712
0.9697	0.6939	9.5712
0.9679	0.6712	9.5814
0.9487	0.6646	9.5718
0.9392	0.6604	9.5491
0.9350	0.6802	9.5521
0.9499	0.6814	9.5653
0.9805	0.7143	9.5677
0.9894	0.7149	9.5587
0.9894	0.7172	9.5629
0.9727	0.6987	9.5688
0.9559	0.6820	9.5730
0.9464	0.6784	9.5694
0.9398	0.6485	9.5688
0.9464	0.6455	9.5557
0.9422	0.6604	9.5617
0.9547	0.6754	9.5629
0.9613	0.6867	9.5623
0.9619	0.7041	9.5718
0.9733	0.7053	9.5647
0.9667	0.6927	9.5706
0.9559	0.6909	9.5700
0.9499	0.6784	9.5539
0.9380	0.6688	9.5587
0.9332	0.6742	9.5593
0.9565	0.6933	9.5593
0.9799	0.7119	9.5581
1.0014	0.7083	9.5688
0.9930	0.7143	9.5569
0.9906	0.6957	9.5575
0.9428	0.6658	9.5748
0.9212	0.6496	9.5736
0.9093	0.6401	9.5635
0.9129	0.6413	9.5647
0.9254	0.6413	9.5563
0.9428	0.6796	9.5575
0.9673	0.6921	9.5647
0.9763	0.7178	9.5700
0.9912	0.7310	9.5641
0.9876	0.7304	9.5611
0.9930	0.7190	9.5563
0.9781	0.6939	9.5694
0.9535	0.6760	9.5629
0.9476	0.6485	9.5557
0.9242	0.6574	9.5653
0.9374	0.6502	9.5617
0.9368	0.6760	9.5617
0.9637	0.6724	9.5635
0.9703	0.6999	9.5623
0.9805	0.7059	9.5605
0.9733	0.7041	9.5635
0.9709	0.7023	9.5629
0.9535	0.6891	9.5617
0.9422	0.6814	9.5724
0.9374	0.6592	9.5605
0.9380	0.6640	9.5617
0.9458	0.6682	9.5617
0.9595	0.6820	9.5593
0.9745	0.6837	9.5581
0.9876	0.6969	9.5629
0.9870	0.6999	9.5653
0.9811	0.6993	9.5635
0.9697	0.6802	9.5706
0.9464	0.6736	9.5569
0.9362	0.6700	9.5563
0.9284	0.6658	9.5611
0.9380	0.6610	9.5629
0.9446	0.6730	9.5641
0.9535	0.6921	9.5659
0.9637	0.6933	9.5671
0.9661	0.6999	9.5736
0.9685	0.6909	9.5617
0.9709	0.6975	9.5569
0.9709	0.6897	9.5605
0.9751	0.6849	9.5617
0.9685	0.6766	9.5611
0.9565	0.6748	9.5694
0.9428	0.6748	9.5700
0.9362	0.6604	9.5671
0.9362	0.6634	9.5688
0.9428	0.6736	9.5617
0.9673	0.6879	9.5527
0.9799	0.6933	9.5671
0.9888	0.7035	9.5682
0.9757	0.7041	9.5593
0.9601	0.6957	9.5700
0.9487	0.6831	9.5671
0.9493	0.6760	9.5533
0.9595	0.6748	9.5575
0.9637	0.6754	9.5605
0.9667	0.6843	9.5545
0.9601	0.6831	9.5647
0.9523	0.6849	9.5682
0.9517	0.6873	9.5635
0.9440	0.6825	9.5629
0.9565	0.6808	9.5545
0.9637	0.6873	9.5587
0.9607	0.6814	9.5599
0.9631	0.6861	9.5551
0.9595	0.6814	9.5617
0.9583	0.6843	9.5665
0.9625	0.6909	9.5623
0.9727	0.6885	9.5641
0.9787	0.6921	9.5629
0.9721	0.6897	9.5563
0.9703	0.6843	9.5599
0.9565	0.6808	9.5700
0.9440	0.6706	9.5677
0.9386	0.6664	9.5688
0.9392	0.6694	9.5659
0.9416	0.6748	9.5617
0.9499	0.6873	9.5593
0.9595	0.6885	9.5623
0.9667	0.6915	9.5647
0.9577	0.6999	9.5629
0.9637	0.6969	9.5659
0.9637	0.6927	9.5635
0.9697	0.6861	9.5605
0.9619	0.6861	9.5659
0.9667	0.6814	9.5635
0.9517	0.6754	9.5647
0.9422	0.6736	9.5688
0.9362	0.6760	9.5653
0.9386	0.6760	9.5671
0.9470	0.6748	9.5647
0.9553	0.6891	9.5575
0.9607	0.6921	9.5575
0.9667	0.6969	9.5659
0.9631	0.6951	9.5659
0.9559	0.6903	9.5706
0.9487	0.6831	9.5653
0.9505	0.6808	9.5569
0.9553	0.6766	9.5629
0.9619	0.6802	9.5617
0.9667	0.6831	9.5575
0.9649	0.6802	9.5665
0.9553	0.6825	9.5635
0.9529	0.6861	9.5587
0.9541	0.6820	9.5748
0.9553	0.6802	9.5671
0.9583	0.6790	9.5611
0.9535	0.6766	9.5688
0.9458	0.6778	9.5617
0.9470	0.6814	9.5611
0.9541	0.6873	9.5772
0.9541	0.6915	9.5694
0.9643	0.6897	9.5629
0.9655	0.6873	9.5706
0.9661	0.6897	9.5575
0.9655	0.6909	9.5599
0.9655	0.6808	9.5754
0.9631	0.6796	9.5677
0.9553	0.6754	9.5677
0.9476	0.6724	9.5706
0.9505	0.6754	9.5629
0.9553	0.6808	9.5635
0.9577	0.6843	9.5700
0.9643	0.6891	9.5593
0.9661	0.6873	9.5665
0.9577	0.6885	9.5694
0.9535	0.6903	9.5617
0.9482	0.6873	9.5724
0.9446	0.6825	9.5706
0.9499	0.6849	9.5617
0.9541	0.6802	9.5736
0.9517	0.6754	9.5712
0.9583	0.6831	9.5617
0.9565	0.6778	9.5677
0.9625	0.6837	9.5641
0.9679	0.6873	9.5569
0.9745	0.6855	9.5647
0.9739	0.6831	9.5653
0.9691	0.6837	9.5623
0.9613	0.6814	9.5629
0.9559	0.6843	9.5700
0.9565	0.6802	9.5635
0.9529	0.6843	9.5671
0.9547	0.6843	9.5623
0.9529	0.6903	9.5629
0.9517	0.6909	9.5641
0.9493	0.6909	9.5671
0.9529	0.6933	9.5665
0.9493	0.6855	9.5677
0.9517	0.6873	9.5623
0.9565	0.6778	9.5653
0.9559	0.6790	9.5677
0.9541	0.6730	9.5641
0.9565	0.6814	9.5677
0.9523	0.6766	9.5671
0.9577	0.6885	9.5647
0.9649	0.6855	9.5647
0.9733	0.6897	9.5647
0.9745	0.6921	9.5647
0.9697	0.6861	9.5671
0.9631	0.6903	9.5629
0.9589	0.6796	9.5653
0.9535	0.6861	9.5665
0.9547	0.6682	9.5682
0.9553	0.6837	9.5641
0.9517	0.6670	9.5677
0.9511	0.6867	9.5587
0.9523	0.6766	9.5671
0.9535	0.6927	9.5647
0.9571	0.6915	9.5671
0.9577	0.6915	9.5677
0.9559	0.6939	9.5659
0.9553	0.6861	9.5688
0.9541	0.6903	9.5605
0.9523	0.6796	9.5706
0.9577	0.6867	9.5611
0.9583	0.6760	9.5712
0.9613	0.6802	9.5659
0.9655	0.6784	9.5647
0.9631	0.6748	9.5706
0.9649	0.6855	9.5617
0.9655	0.6754	9.5694
0.9667	0.6831	9.5653
0.9631	0.6855	9.5593
0.9637	0.6796	9.5671
0.9553	0.6909	9.5623
0.9565	0.6784	9.5653
0.9523	0.6909	9.5659
0.9476	0.6867	9.5611
0.9499	0.6784	9.5677
0.9493	0.6927	9.5599
0.9511	0.6754	9.5671
0.9505	0.6879	9.5659
0.9499	0.6814	9.5641
0.9535	0.6796	9.5706
0.9511	0.6843	9.5671
0.9553	0.6784	9.5587
0.9571	0.6790	9.5671
0.9613	0.6831	9.5605
0.9607	0.6784	9.5647
0.9613	0.6814	9.5682
0.9619	0.6879	9.5563
0.9613	0.6796	9.5682
0.9613	0.6873	9.5688
0.9607	0.6814	9.5593
0.9601	0.6814	9.5647
0.9553	0.6855	9.5641
0.9553	0.6820	9.5587
0.9589	0.6808	9.5671
0.9511	0.6808	9.5641
0.9553	0.6843	9.5563
0.9565	0.6784	9.5665
0.9511	0.6885	9.5617
0.9553	0.6867	9.5575
0.9553	0.6849	9.5677
0.9493	0.6855	9.5677
0.9493	0.6915	9.5557
0.9577	0.6778	9.5671
0.9511	0.6808	9.5736
0.9511	0.6873	9.5539
0.9583	0.6772	9.5647
0.9583	0.6796	9.5677
0.9595	0.6831	9.5593
0.9667	0.6820	9.5599
0.9667	0.6784	9.5700
0.9583	0.6861	9.5569
0.9673	0.6820	9.5551
0.9733	0.6784	9.5694
0.9619	0.6879	9.5665
0.9589	0.6861	9.5569
0.9655	0.6843	9.5629
0.9553	0.6837	9.5694
0.9499	0.6879	9.5629
0.9541	0.6861	9.5623
0.9511	0.6837	9.5623
0.9499	0.6879	9.5623
0.9559	0.6837	9.5641
0.9541	0.6831	9.5671
0.9505	0.6885	9.5617
0.9535	0.6861	9.5641
0.9595	0.6808	9.5671
0.9589	0.6861	9.5647
0.9625	0.6873	9.5617
0.9613	0.6808	9.5641
0.9619	0.6837	9.5611
0.9625	0.6825	9.5629
0.9613	0.6861	9.5653
0.9631	0.6820	9.5617
0.9601	0.6820	9.5623
0.9619	0.6808	9.5647
0.9589	0.6873	9.5629
0.9619	0.6820	9.5593
0.9607	0.6825	9.5623
0.9577	0.6831	9.5623
0.9577	0.6855	9.5605
0.9565	0.6790	9.5599
0.9589	0.6837	9.5611
0.9517	0.6867	9.5581
0.9553	0.6855	9.5635
0.9541	0.6825	9.5605
0.9535	0.6843	9.5599
0.9517	0.6855	9.5647
0.9505	0.6849	9.5641
0.9511	0.6766	9.5647
0.9523	0.6873	9.5599
0.9577	0.6855	9.5587
0.9601	0.6849	9.5671
0.9631	0.6825	9.5629
0.9625	0.6814	9.5617
0.9619	0.6879	9.5593
0.9607	0.6825	9.5617
0.9685	0.6843	9.5653
0.9643	0.6837	9.5635
0.9637	0.6814	9.5623
0.9577	0.6849	9.5659
0.9583	0.6814	9.5629
0.9583	0.6831	9.5647
0.9571	0.6879	9.5665
0.9583	0.6855	9.5617
0.9577	0.6885	9.5665
0.9535	0.6784	9.5682
0.9505	0.6891	9.5605
0.9535	0.6867	9.5593
0.9553	0.6843	9.5688
0.9571	0.6873	9.5671
0.9583	0.6790	9.5653
0.9553	0.6843	9.5653
0.9511	0.6802	9.5647
0.9589	0.6849	9.5617
0.9607	0.6814	9.5682
0.9655	0.6903	9.5671
0.9613	0.6855	9.5641
0.9631	0.6831	9.5682
0.9583	0.6778	9.5688
0.9571	0.6820	9.5659
0.9601	0.6831	9.5623
0.9637	0.6825	9.5677
0.9643	0.6855	9.5635
0.9661	0.6885	9.5629
0.9637	0.6814	9.5718
0.9523	0.6861	9.5700
0.9511	0.6802	9.5623
0.9523	0.6790	9.5653
0.9535	0.6843	9.5671
0.9559	0.6873	9.5623
0.9607	0.6855	9.5641
0.9565	0.6873	9.5706
0.9535	0.6855	9.5688
0.9535	0.6808	9.5688
0.9529	0.6796	9.5682
0.9565	0.6820	9.5623
0.9637	0.6825	9.5623
0.9679	0.6808	9.5665
0.9643	0.6837	9.5671
0.9601	0.6843	9.5653
0.9577	0.6837	9.5682
0.9601	0.6825	9.5677
0.9607	0.6849	9.5623
0.9649	0.6837	9.5617
0.9661	0.6855	9.5653
0.9607	0.6837	9.5682
0.9559	0.6814	9.5694
0.9553	0.6843	9.5677
0.9523	0.6843	9.5653
0.9589	0.6837	9.5665
0.9619	0.6831	9.5671
0.9613	0.6831	9.5623
0.9595	0.6855	9.5629
0.9553	0.6867	9.5659
0.9565	0.6837	9.5641
0.9583	0.6825	9.5688
0.9571	0.6820	9.5682
0.9583	0.6861	9.5575
0.9625	0.6820	9.5617
0.9613	0.6808	9.5712
0.9571	0.6861	9.5605
0.9583	0.6843	9.5611
0.9577	0.6837	9.5706
0.9595	0.6837	9.5617
0.9613	0.6802	9.5641
0.9631	0.6814	9.5659
0.9595	0.6879	9.5563
0.9589	0.6820	9.5641
0.9589	0.6796	9.5724
0.9559	0.6861	9.5605
0.9547	0.6849	9.5605
0.9565	0.6814	9.5688
0.9565	0.6849	9.5599
0.9571	0.6855	9.5593
0.9577	0.6843	9.5665
0.9553	0.6861	9.5617
0.9523	0.6825	9.5617
0.9529	0.6796	9.5641
0.9535	0.6837	9.5593
0.9523	0.6849	9.5587
0.9565	0.6820	9.5635
0.9589	0.6837	9.5623
0.9541	0.6867	9.5599
0.9529	0.6855	9.5617
0.9547	0.6867	9.5623
0.9565	0.6849	9.5617
0.9559	0.6855	9.5611
0.9589	0.6843	9.5629
0.9565	0.6831	9.5617
0.9559	0.6820	9.5635
0.9547	0.6820	9.5659
0.9523	0.6843	9.5605
0.9541	0.6849	9.5605
0.9553	0.6825	9.5677
0.9535	0.6837	9.5617
0.9553	0.6843	9.5569
0.9547	0.6837	9.5647
0.9529	0.6861	9.5629
0.9541	0.6867	9.5623
0.9535	0.6849	9.5647
0.9541	0.6855	9.5575
0.9559	0.6831	9.5611
0.9571	0.6814	9.5671
0.9547	0.6831	9.5599
0.9541	0.6849	9.5581
0.9559	0.6837	9.5665
0.9565	0.6837	9.5665
0.9571	0.6820	9.5629
0.9553	0.6820	9.5635
0.9541	0.6825	9.5611
0.9541	0.6843	9.5605
0.9553	0.6843	9.5682
0.9559	0.6855	9.5665
0.9517	0.6867	9.5611
0.9511	0.6843	9.5641
0.9535	0.6831	9.5659
0.9511	0.6843	9.5635
0.9511	0.6855	9.5629
0.9541	0.6843	9.5629
0.9535	0.6802	9.5629
0.9535	0.6814	9.5635
0.9553	0.6820	9.5635
0.9541	0.6825	9.5629
0.9553	0.6825	9.5623
0.9577	0.6820	9.5671
0.9577	0.6831	9.5653
0.9583	0.6849	9.5605
0.9577	0.6825	9.5671
0.9571	0.6825	9.5665
0.9559	0.6843	9.5647
0.9559	0.6837	9.5671
0.9547	0.6825	9.5653
0.9541	0.6820	9.5635
0.9559	0.6796	9.5677
0.9529	0.6820	9.5653
0.9541	0.6825	9.5617
0.9547	0.6820	9.5700
0.9535	0.6814	9.5682
0.9559	0.6825	9.5629
0.9547	0.6825	9.5659
0.9541	0.6820	9.5653
0.9553	0.6837	9.5617
0.9571	0.6808	9.5671
0.9577	0.6825	9.5659
0.9577	0.6849	9.5599
0.9589	0.6808	9.5677
0.9595	0.6808	9.5671
0.9577	0.6831	9.5623
0.9589	0.6820	9.5659
0.9613	0.6814	9.5671
0.9607	0.6814	9.5635
0.9595	0.6820	9.5641
0.9589	0.6831	9.5653
0.9565	0.6831	9.5641
0.9553	0.6820	9.5647
0.9571	0.6808	9.5653
0.9547	0.6820	9.5635
0.9547	0.6825	9.5605
0.9583	0.6820	9.5635
0.9565	0.6831	9.5653
0.9553	0.6831	9.5617
0.9577	0.6820	9.5629
0.9565	0.6808	9.5641
0.9559	0.6814	9.5587
0.9589	0.6814	9.5605
0.9595	0.6820	9.5635
0.9583	0.6831	9.5605
0.9601	0.6820	9.5641
0.9589	0.6808	9.5659
0.9571	0.6825	9.5605
0.9589	0.6820	9.5629
0.9595	0.6802	9.5671
0.9601	0.6831	9.5611
0.9607	0.6837	9.5635
0.9583	0.6825	9.5682
0.9565	0.6843	9.5623
0.9565	0.6843	9.5635
0.9571	0.6825	9.5700
0.9571	0.6843	9.5629
0.9589	0.6837	9.5635
0.9595	0.6820	9.5682
0.9571	0.6837	9.5629
0.9553	0.6837	9.5641
0.9553	0.6825	9.5677
0.9559	0.6837	9.5623
0.9577	0.6831	9.5629
0.9595	0.6820	9.5677
0.9583	0.6837	9.5617
0.9577	0.6849	9.5629
0.9571	0.6837	9.5677
0.9577	0.6843	9.5635
0.9589	0.6837	9.5635
0.9607	0.6820	9.5671
0.9595	0.6831	9.5623
0.9595	0.6837	9.5623
0.9589	0.6831	9.5677
0.9571	0.6849	9.5641
0.9553	0.6849	9.5641
0.9565	0.6820	9.5688
0.9565	0.6825	9.5653
0.9559	0.6837	9.5623
0.9565	0.6831	9.5682
0.9559	0.6843	9.5671
0.9553	0.6849	9.5647
0.9559	0.6831	9.5688
0.9559	0.6825	9.5671
0.9559	0.6831	9.5647
0.9583	0.6820	9.5671
0.9595	0.6825	9.5659
0.9595	0.6837	9.5647
0.9613	0.6825	9.5682
0.9619	0.6820	9.5677
0.9607	0.6831	9.5647
0.9607	0.6820	9.5671
0.9619	0.6814	9.5671
0.9619	0.6820	9.5653
0.9619	0.6820	9.5677
0.9613	0.6820	9.5682
0.9595	0.6837	9.5665
0.9583	0.6831	9.5671
0.9589	0.6825	9.5677
0.9589	0.6831	9.5665
0.9589	0.6820	9.5665
0.9595	0.6808	9.5671
0.9589	0.6814	9.5665
0.9571	0.6820	9.5671
0.9577	0.6825	9.5682
0.9577	0.6825	9.5677
0.9577	0.6820	9.5671
0.9589	0.6814	9.5665
0.9595	0.6820	9.5665
0.9589	0.6820	9.5665
0.9595	0.6820	9.5671
0.9595	0.6820	9.5671
0.9595	0.6825	9.5665
0.9601	0.6820	9.5659
0.9595	0.6820	9.5665
0.9589	0.6820	9.5659
0.9589	0.6820	9.5659
0.9571	0.6820	9.5665
0.9565	0.6825	9.5659
0.9571	0.6831	9.5653
0.9571	0.6831	9.5665
0.9559	0.6837	9.5659
0.9559	0.6837	9.5659
0.9565	0.6831	9.5682
0.9559	0.6831	9.5671
0.9571	0.6831	9.5665
0.9571	0.6825	9.5682
0.9559	0.6820	9.5671
0.9559	0.6820	9.5665
0.9565	0.6814	9.5677
0.9565	0.6820	9.5659
0.9571	0.6814	9.5653
0.9577	0.6808	9.5665
0.9565	0.6814	9.5653
0.9565	0.6820	9.5647
0.9565	0.6814	9.5659
0.9559	0.6820	9.5647
0.9565	0.6820	9.5629
0.9565	0.6814	9.5641
0.9565	0.6825	9.5635
0.9559	0.6825	9.5623
0.9559	0.6820	9.5653
0.9565	0.6820	9.5647
0.9559	0.6825	9.5623
0.9565	0.6820	9.5641
0.9565	0.6820	9.5641
0.9559	0.6825	9.5635
0.9559	0.6820	9.5653
0.9565	0.6820	9.5647
0.9565	0.6825	9.5623
0.9565	0.6820	9.5629
0.9571	0.6820	9.5623
0.9565	0.6825	9.5611
0.9565	0.6820	9.5623
0.9565	0.6825	9.5635
0.9571	0.6831	9.5623
0.9571	0.6825	9.5635
0.9565	0.6825	9.5641
0.9565	0.6820	9.5629
0.9565	0.6820	9.5635
0.9559	0.6825	9.5635
0.9559	0.6831	9.5629
0.9559	0.6825	9.5635
0.9553	0.6831	9.5629
0.9553	0.6843	9.5617
0.9553	0.6843	9.5623
0.9553	0.6849	9.5629
0.9553	0.6849	9.5623
0.9541	0.6849	9.5623
0.9541	0.6849	9.5617
0.9541	0.6855	9.5611
0.9541	0.6849	9.5617
0.9541	0.6849	9.5623
0.9547	0.6849	9.5611
0.9541	0.6849	9.5611
0.9547	0.6843	9.5611
0.9547	0.6843	9.5611
0.9547	0.6849	9.5617
0.9547	0.6849	9.5611
0.9541	0.6849	9.5611
0.9535	0.6843	9.5605
0.9535	0.6843	9.5599
0.9529	0.6843	9.5599
0.9529	0.6837	9.5599
0.9535	0.6837	9.5605
0.9535	0.6837	9.5605
0.9535	0.6837	9.5617
0.9535	0.6837	9.5617
0.9541	0.6843	9.5623
0.9541	0.6843	9.5629
0.9547	0.6843	9.5623
0.9553	0.6837	9.5629
0.9553	0.6837	9.5623
0.9553	0.6837	9.5617
0.9559	0.6837	9.5617
0.9553	0.6831	9.5623
0.9559	0.6831	9.5629
0.9565	0.6825	9.5629
0.9565	0.6820	9.5629
0.9565	0.6820	9.5629
0.9565	0.6820	9.5623
0.9565	0.6814	9.5623
0.9559	0.6814	9.5623
0.9565	0.6820	9.5623
0.9565	0.6825	9.5617
0.9565	0.6831	9.5611
0.9565	0.6831	9.5611
0.9559	0.6837	9.5623
0.9565	0.6837	9.5617
0.9565	0.6831	9.5623
0.9559	0.6831	9.5617
0.9565	0.6831	9.5611
0.9565	0.6831	9.5611
0.9571	0.6831	9.5611
0.9571	0.6831	9.5611
0.9571	0.6831	9.5611
0.9571	0.6825	9.5617
0.9577	0.6820	9.5611
0.9577	0.6820	9.5605
0.9583	0.6820	9.5605
0.9583	0.6820	9.5605
0.9589	0.6820	9.5611
0.9589	0.6825	9.5611
0.9583	0.6825	9.5617
0.9589	0.6825	9.5617
0.9589	0.6825	9.5617
0.9583	0.6825	9.5617
0.9583	0.6825	9.5617
0.9583	0.6825	9.5623
0.9577	0.6831	9.5629
0.9571	0.6831	9.5641
0.9571	0.6831	9.5647
0.9571	0.6831	9.5641
0.9571	0.6831	9.5635
0.9577	0.6831	9.5635
0.9583	0.6825	9.5635
0.9577	0.6825	9.5635
0.9577	0.6825	9.5629
0.9571	0.6825	9.5629
0.9577	0.6820	9.5629
0.9577	0.6820	9.5629
0.9577	0.6814	9.5629
0.9571	0.6820	9.5623
0.9571	0.6820	9.5623
0.9571	0.6820	9.5629
0.9565	0.6825	9.5629
0.9565	0.6820	9.5623
0.9565	0.6814	9.5623
0.9559	0.6814	9.5623
0.9559	0.6814	9.5629
0.9559	0.6820	9.5629
0.9553	0.6820	9.5641
0.9553	0.6820	9.5641
0.9553	0.6820	9.5641
0.9553	0.6820	9.5641
0.9553	0.6814	9.5635
0.9559	0.6814	9.5647
0.9565	0.6814	9.5641
0.9565	0.6820	9.5641
0.9571	0.6820	9.5647
0.9571	0.6820	9.5641
0.9571	0.6820	9.5647
0.9571	0.6814	9.5647
0.9571	0.6814	9.5647
0.9571	0.6814	9.5641
0.9571	0.6820	9.5641
0.9571	0.6814	9.5641
0.9571	0.6814	9.5641
0.9571	0.6820	9.5641
0.9571	0.6825	9.5641
0.9577	0.6825	9.5635
0.9577	0.6831	9.5641
0.9577	0.6825	9.5641
0.9571	0.6825	9.5635
0.9565	0.6831	9.5629
0.9553	0.6837	9.5629
0.9553	0.6831	9.5629
0.9559	0.6831	9.5629
0.9559	0.6831	9.5623
0.9559	0.6837	9.5623
0.9565	0.6837	9.5617
0.9565	0.6831	9.5617
0.9559	0.6825	9.5617
0.9559	0.6825	9.5617
0.9559	0.6825	9.5623
0.9565	0.6831	9.5629
0.9571	0.6831	9.5635
0.9571	0.6831	9.5647
0.9571	0.6831	9.5647
0.9577	0.6831	9.5653
0.9577	0.6825	9.5653
0.9571	0.6820	9.5641
0.9565	0.6820	9.5635
0.9559	0.6820	9.5629
0.9565	0.6820	9.5635
0.9559	0.6825	9.5635
0.9559	0.6831	9.5635
0.9553	0.6831	9.5629
0.9559	0.6831	9.5629
0.9559	0.6837	9.5629
0.9559	0.6837	9.5635
0.9565	0.6837	9.5635
0.9565	0.6831	9.5629
0.9559	0.6831	9.5629
0.9565	0.6825	9.5641
0.9571	0.6825	9.5641
0.9565	0.6820	9.5647
0.9565	0.6831	9.5641
0.9565	0.6831	9.5641
0.9565	0.6831	9.5635
0.9571	0.6831	9.5635
0.9565	0.6831	9.5629
0.9565	0.6831	9.5635
0.9571	0.6831	9.5635
0.9571	0.6831	9.5641
0.9577	0.6831	9.5647
0.9577	0.6837	9.5653
0.9577	0.6837	9.5647
0.9571	0.6843	9.5647
0.9571	0.6843	9.5641
0.9571	0.6837	9.5647
0.9577	0.6837	9.5647
0.9577	0.6837	9.5641
0.9583	0.6837	9.5641
0.9583	0.6843	9.5635
0.9583	0.6843	9.5635
0.9577	0.6837	9.5629
0.9571	0.6837	9.5623
0.9571	0.6837	9.5623
0.9571	0.6837	9.5617
0.9571	0.6837	9.5623
0.9571	0.6831	9.5629
0.9565	0.6831	9.5623
0.9565	0.6837	9.5623
0.9565	0.6837	9.5617
0.9565	0.6831	9.5623
0.9565	0.6831	9.5629
0.9565	0.6837	9.5623
0.9559	0.6837	9.5623
0.9553	0.6843	9.5617
0.9553	0.6849	9.5617
0.9553	0.6843	9.5617
0.9553	0.6849	9.5623
0.9553	0.6849	9.5623
0.9559	0.6849	9.5623
0.9559	0.6843	9.5623
0.9559	0.6843	9.5623
0.9559	0.6849	9.5629
0.9559	0.6843	9.5629
0.9559	0.6837	9.5623
0.9565	0.6831	9.5629
0.9565	0.6831	9.5635
0.9559	0.6831	9.5635
0.9553	0.6831	9.5635
0.9553	0.6831	9.5629
0.9553	0.6831	9.5623
0.9547	0.6837	9.5623
0.9547	0.6843	9.5617
0.9547	0.6843	9.5611
0.9547	0.6843	9.5611
0.9547	0.6843	9.5605
0.9547	0.6843	9.5605
0.9547	0.6843	9.5605
0.9541	0.6837	9.5605
0.9541	0.6831	9.5605
0.9547	0.6831	9.5605
0.9553	0.6831	9.5599
0.9553	0.6831	9.5605
0.9559	0.6825	9.5605
0.9559	0.6825	9.5605
0.9559	0.6820	9.5605
0.9565	0.6820	9.5611
0.9565	0.6814	9.5611
0.9565	0.6814	9.5611
0.9559	0.6814	9.5611
0.9559	0.6814	9.5611
0.9559	0.6814	9.5611
0.9559	0.6814	9.5611
0.9559	0.6820	9.5611
0.9559	0.6820	9.5629
0.9559	0.6825	9.5629
0.9559	0.6825	9.5641
0.9571	0.6831	9.5647
0.9571	0.6825	9.5641
0.9571	0.6825	9.5641
0.9571	0.6825	9.5635
0.9571	0.6825	9.5629
0.9571	0.6820	9.5629
0.9571	0.6820	9.5629
0.9571	0.6814	9.5629
0.9565	0.6814	9.5623
0.9565	0.6820	9.5623
0.9559	0.6814	9.5629
0.9565	0.6814	9.5635
0.9559	0.6814	9.5641
0.9553	0.6808	9.5635
0.9553	0.6814	9.5629
0.9553	0.6814	9.5623
0.9559	0.6808	9.5623
0.9559	0.6802	9.5623
0.9553	0.6802	9.5623
0.9553	0.6802	9.5629
0.9553	0.6802	9.5635
0.9547	0.6802	9.5641
0.9553	0.6808	9.5641
0.9553	0.6814	9.5641
0.9553	0.6814	9.5635
0.9547	0.6814	9.5629
0.9553	0.6808	9.5629
0.9559	0.6808	9.5635
0.9565	0.6802	9.5629
0.9571	0.6802	9.5629
0.9571	0.6802	9.5635
0.9571	0.6802	9.5641
0.9577	0.6802	9.5641
0.9577	0.6802	9.5641
0.9577	0.6808	9.5641
0.9577	0.6814	9.5653
0.9583	0.6814	9.5653
0.9589	0.6820	9.5659
0.9589	0.6820	9.5665
0.9583	0.6820	9.5665
0.9583	0.6820	9.5659
0.9577	0.6820	9.5659
0.9571	0.6825	9.5659
0.9577	0.6831	9.5653
0.9571	0.6831	9.5647
0.9571	0.6831	9.5641
0.9571	0.6831	9.5641
0.9571	0.6831	9.5635
0.9583	0.6831	9.5641
0.9583	0.6831	9.5641
0.9583	0.6831	9.5647
0.9583	0.6831	9.5647
0.9583	0.6831	9.5647
0.9577	0.6831	9.5641
0.9583	0.6831	9.5635
0.9577	0.6831	9.5629
0.9577	0.6837	9.5623
0.9583	0.6837	9.5623
0.9577	0.6837	9.5623
0.9577	0.6837	9.5629
0.9583	0.6831	9.5629
0.9583	0.6831	9.5623
0.9583	0.6831	9.5623
0.9577	0.6831	9.5623

