accelx	accely	accelz
0.9093	0.6879	9.5700
0.9117	0.6861	9.5688
0.9111	0.6867	9.5706
0.9105	0.6861	9.5736
0.9129	0.6867	9.5724
0.9152	0.6867	9.5700
0.9147	0.6867	9.5694
0.9164	0.6861	9.5694
0.9135	0.6873	9.5677
0.9123	0.6879	9.5694
0.9111	0.6855	9.5700
0.9111	0.6849	9.5682
0.9105	0.6837	9.5694
0.9087	0.6843	9.5682
0.9093	0.6861	9.5688
0.9099	0.6867	9.5694
0.9099	0.6873	9.5700
0.9105	0.6879	9.5706
0.9117	0.6891	9.5706
0.9123	0.6879	9.5682
0.9129	0.6867	9.5688
0.9123	0.6855	9.5677
0.9123	0.6855	9.5682
0.9123	0.6861	9.5694
0.9129	0.6873	9.5700
0.9135	0.6861	9.5688
0.9129	0.6855	9.5682
0.9141	0.6855	9.5677
0.9123	0.6861	9.5653
0.9123	0.6867	9.5653
0.9117	0.6873	9.5665
0.9111	0.6879	9.5706
0.9123	0.6891	9.5700
0.9129	0.6885	9.5694
0.9099	0.6885	9.5712
0.9123	0.6879	9.5712
0.9135	0.6879	9.5688
0.9135	0.6891	9.5677
0.9141	0.6891	9.5682
0.9147	0.6891	9.5665
0.9129	0.6891	9.5694
0.9129	0.6879	9.5712
0.9129	0.6885	9.5730
0.9135	0.6885	9.5748
0.9135	0.6891	9.5724
0.9117	0.6873	9.5688
0.9129	0.6855	9.5682
0.9117	0.6861	9.5677
0.9117	0.6873	9.5682
0.9129	0.6873	9.5659
0.9123	0.6879	9.5635
0.9111	0.6879	9.5629
0.9111	0.6885	9.5647
0.9105	0.6879	9.5659
0.9129	0.6873	9.5671
0.9147	0.6873	9.5712
0.9152	0.6855	9.5718
0.9135	0.6861	9.5694
0.9117	0.6867	9.5677
0.9099	0.6873	9.5659
0.9105	0.6879	9.5647
0.9105	0.6873	9.5659
0.9099	0.6861	9.5694
0.9105	0.6873	9.5712
0.9135	0.6879	9.5688
0.9147	0.6885	9.5688
0.9147	0.6885	9.5694
0.9147	0.6897	9.5682
0.9147	0.6897	9.5677
0.9141	0.6885	9.5694
0.9123	0.6885	9.5677
0.9117	0.6903	9.5682
0.9129	0.6897	9.5700
0.9135	0.6873	9.5682
0.9129	0.6849	9.5694
0.9141	0.6837	9.5700
0.9152	0.6837	9.5688
0.9141	0.6849	9.5712
0.9141	0.6855	9.5706
0.9135	0.6861	9.5694
0.9135	0.6849	9.5730
0.9152	0.6861	9.5736
0.9158	0.6873	9.5736
0.9147	0.6879	9.5742
0.9152	0.6873	9.5718
0.9141	0.6867	9.5724
0.9147	0.6873	9.5718
0.9147	0.6891	9.5706
0.9129	0.6891	9.5706
0.9111	0.6903	9.5712
0.9117	0.6903	9.5694
0.9111	0.6903	9.5718
0.9135	0.6897	9.5730
0.9117	0.6891	9.5730
0.9123	0.6897	9.5724
0.9099	0.6897	9.5712
0.9099	0.6897	9.5706
0.9105	0.6897	9.5730
0.9117	0.6903	9.5700
0.9111	0.6909	9.5712
0.9099	0.6897	9.5718
0.9105	0.6891	9.5718
0.9111	0.6897	9.5700
0.9117	0.6903	9.5718
0.9129	0.6909	9.5712
0.9129	0.6915	9.5718
0.9105	0.6903	9.5718
0.9123	0.6909	9.5730
0.9135	0.6897	9.5718
0.9141	0.6897	9.5712
0.9141	0.6897	9.5700
0.9158	0.6897	9.5730
0.9158	0.6897	9.5760
0.9158	0.6903	9.5748
0.9152	0.6897	9.5742
0.9141	0.6897	9.5706
0.9123	0.6891	9.5694
0.9105	0.6903	9.5694
0.9117	0.6903	9.5682
0.9117	0.6891	9.5671
0.9135	0.6891	9.5688
0.9141	0.6885	9.5706
0.9141	0.6879	9.5700
0.9129	0.6891	9.5688
0.9135	0.6903	9.5677
0.9141	0.6897	9.5671
0.9152	0.6873	9.5688
0.9141	0.6873	9.5688
0.9147	0.6879	9.5688
0.9164	0.6873	9.5700
0.9164	0.6861	9.5688
0.9164	0.6873	9.5665
0.9129	0.6867	9.5659
0.9093	0.6867	9.5688
0.9087	0.6867	9.5730
0.9099	0.6867	9.5766
0.9117	0.6873	9.5742
0.9111	0.6879	9.5748
0.9111	0.6885	9.5736
0.9123	0.6885	9.5766
0.9117	0.6897	9.5748
0.9135	0.6885	9.5736
0.9141	0.6867	9.5718
0.9135	0.6873	9.5706
0.9129	0.6879	9.5688
0.9135	0.6897	9.5677
0.9152	0.6891	9.5682
0.9147	0.6891	9.5694
0.9129	0.6879	9.5688
0.9111	0.6885	9.5671
0.9111	0.6885	9.5677
0.9117	0.6879	9.5700
0.9129	0.6879	9.5706
0.9147	0.6873	9.5682
0.9147	0.6867	9.5653
0.9129	0.6885	9.5653
0.9141	0.6891	9.5653
0.9141	0.6879	9.5682
0.9123	0.6891	9.5700
0.9105	0.6891	9.5712
0.9111	0.6885	9.5718
0.9135	0.6891	9.5706
0.9141	0.6879	9.5718
0.9147	0.6861	9.5706
0.9152	0.6861	9.5712
0.9158	0.6867	9.5712
0.9152	0.6873	9.5688
0.9135	0.6873	9.5671
0.9135	0.6867	9.5688
0.9129	0.6867	9.5700
0.9117	0.6885	9.5724
0.9105	0.6879	9.5706
0.9093	0.6879	9.5694
0.9105	0.6891	9.5682
0.9117	0.6891	9.5665
0.9105	0.6891	9.5659
0.9105	0.6897	9.5677
0.9093	0.6897	9.5659
0.9087	0.6879	9.5665
0.9123	0.6861	9.5659
0.9123	0.6849	9.5682
0.9111	0.6855	9.5688
0.9099	0.6843	9.5677
0.9093	0.6849	9.5671
0.9105	0.6855	9.5671
0.9099	0.6855	9.5677
0.9099	0.6849	9.5700
0.9087	0.6867	9.5682
0.9105	0.6873	9.5665
0.9093	0.6879	9.5665
0.9111	0.6885	9.5694
0.9117	0.6897	9.5677
0.9117	0.6897	9.5659
0.9123	0.6879	9.5653
0.9141	0.6873	9.5700
0.9147	0.6861	9.5718
0.9135	0.6849	9.5700
0.9141	0.6843	9.5677
0.9141	0.6849	9.5665
0.9141	0.6843	9.5671
0.9111	0.6843	9.5659
0.9099	0.6849	9.5682
0.9123	0.6861	9.5718
0.9123	0.6867	9.5706
0.9123	0.6867	9.5712
0.9129	0.6861	9.5724
0.9123	0.6861	9.5742
0.9111	0.6861	9.5742
0.9123	0.6867	9.5742
0.9111	0.6861	9.5748
0.9087	0.6855	9.5736
0.9075	0.6849	9.5712
0.9075	0.6855	9.5718
0.9093	0.6849	9.5742
0.9087	0.6843	9.5736
0.9099	0.6831	9.5736
0.9117	0.6831	9.5706
0.9117	0.6831	9.5688
0.9105	0.6831	9.5682
0.9093	0.6831	9.5671
0.9081	0.6837	9.5677
0.9081	0.6855	9.5659
0.9093	0.6855	9.5647
0.9099	0.6849	9.5688
0.9105	0.6849	9.5688
0.9093	0.6861	9.5671
0.9099	0.6867	9.5682
0.9123	0.6861	9.5682
0.9105	0.6867	9.5688
0.9111	0.6861	9.5671
0.9111	0.6861	9.5647
0.9093	0.6855	9.5641
0.9081	0.6855	9.5653
0.9087	0.6855	9.5635
0.9111	0.6861	9.5653
0.9117	0.6855	9.5647
0.9105	0.6849	9.5647
0.9105	0.6855	9.5647
0.9093	0.6867	9.5659
0.9075	0.6861	9.5677
0.9045	0.6867	9.5659
0.9051	0.6879	9.5677
0.9069	0.6873	9.5682
0.9087	0.6873	9.5706
0.9105	0.6867	9.5754
0.9117	0.6867	9.5748
0.9117	0.6855	9.5760
0.9123	0.6873	9.5766
0.9123	0.6879	9.5760
0.9135	0.6861	9.5802
0.9141	0.6861	9.5796
0.9123	0.6861	9.5784
0.9117	0.6885	9.5748
0.9117	0.6885	9.5730
0.9087	0.6873	9.5730
0.9081	0.6873	9.5724
0.9105	0.6879	9.5736
0.9123	0.6873	9.5760
0.9129	0.6861	9.5772
0.9123	0.6873	9.5778
0.9129	0.6885	9.5742
0.9147	0.6897	9.5718
0.9152	0.6885	9.5712
0.9147	0.6891	9.5706
0.9141	0.6897	9.5706
0.9141	0.6885	9.5718
0.9135	0.6873	9.5712
0.9158	0.6873	9.5724
0.9170	0.6867	9.5694
0.9152	0.6867	9.5671
0.9158	0.6855	9.5665
0.9147	0.6873	9.5671
0.9111	0.6873	9.5647
0.9117	0.6861	9.5659
0.9123	0.6855	9.5653
0.9111	0.6867	9.5659
0.9111	0.6867	9.5700
0.9123	0.6855	9.5712
0.9129	0.6849	9.5718
0.9141	0.6849	9.5712
0.9141	0.6861	9.5730
0.9129	0.6867	9.5724
0.9111	0.6867	9.5718
0.9087	0.6861	9.5694
0.9093	0.6873	9.5694
0.9105	0.6885	9.5665
0.9105	0.6885	9.5682
0.9123	0.6885	9.5688
0.9123	0.6885	9.5665
0.9129	0.6873	9.5653
0.9117	0.6867	9.5682
0.9111	0.6879	9.5706
0.9087	0.6879	9.5712
0.9123	0.6873	9.5712
0.9135	0.6867	9.5677
0.9117	0.6849	9.5659
0.9123	0.6831	9.5665
0.9111	0.6831	9.5682
0.9093	0.6843	9.5700
0.9099	0.6843	9.5700
0.9129	0.6849	9.5730
0.9129	0.6843	9.5772
0.9141	0.6849	9.5772
0.9158	0.6861	9.5760
0.9152	0.6867	9.5772
0.9147	0.6867	9.5796
0.9129	0.6867	9.5760
0.9129	0.6867	9.5754
0.9135	0.6897	9.5706
0.9135	0.6915	9.5712
0.9141	0.6921	9.5718
0.9158	0.6909	9.5706
0.9158	0.6903	9.5682
0.9152	0.6891	9.5682
0.9152	0.6891	9.5688
0.9164	0.6885	9.5688
0.9152	0.6891	9.5712
0.9147	0.6885	9.5706
0.9158	0.6885	9.5677
0.9135	0.6891	9.5653
0.9117	0.6885	9.5647
0.9135	0.6885	9.5677
0.9135	0.6885	9.5712
0.9129	0.6873	9.5730
0.9099	0.6861	9.5724
0.9093	0.6879	9.5736
0.9081	0.6873	9.5754
0.9075	0.6867	9.5718
0.9093	0.6861	9.5694
0.9105	0.6855	9.5694
0.9111	0.6867	9.5682
0.9129	0.6855	9.5682
0.9141	0.6861	9.5694
0.9147	0.6873	9.5718
0.9158	0.6885	9.5694
0.9158	0.6885	9.5694
0.9158	0.6885	9.5718
0.9147	0.6873	9.5718
0.9147	0.6867	9.5712
0.9129	0.6861	9.5730
0.9129	0.6855	9.5700
0.9129	0.6843	9.5688
0.9117	0.6849	9.5700
0.9135	0.6861	9.5706
0.9135	0.6867	9.5730
0.9135	0.6861	9.5718
0.9147	0.6873	9.5700
0.9129	0.6867	9.5677
0.9111	0.6873	9.5671
0.9069	0.6867	9.5647
0.9057	0.6861	9.5635
0.9069	0.6861	9.5653
0.9087	0.6873	9.5653
0.9105	0.6885	9.5653
0.9111	0.6879	9.5665
0.9117	0.6879	9.5677
0.9117	0.6873	9.5682
0.9111	0.6861	9.5682
0.9117	0.6861	9.5694
0.9141	0.6843	9.5724
0.9152	0.6843	9.5748
0.9147	0.6855	9.5742
0.9147	0.6867	9.5736
0.9141	0.6867	9.5712
0.9129	0.6861	9.5700
0.9117	0.6873	9.5682
0.9117	0.6879	9.5677
0.9135	0.6873	9.5671
0.9141	0.6861	9.5694
0.9135	0.6867	9.5712
0.9141	0.6867	9.5718
0.9141	0.6879	9.5742
0.9152	0.6873	9.5760
0.9147	0.6879	9.5760
0.9141	0.6879	9.5766
0.9152	0.6867	9.5778
0.9164	0.6861	9.5730
0.9200	0.6849	9.5712
0.9194	0.6861	9.5706
0.9170	0.6861	9.5688
0.9170	0.6861	9.5671
0.9164	0.6867	9.5688
0.9147	0.6849	9.5712
0.9152	0.6837	9.5712
0.9158	0.6849	9.5706
0.9135	0.6843	9.5718
0.9123	0.6855	9.5694
0.9111	0.6873	9.5712
0.9105	0.6891	9.5706
0.9117	0.6891	9.5712
0.9105	0.6903	9.5742
0.9099	0.6891	9.5736
0.9069	0.6909	9.5712
0.9081	0.6903	9.5694
0.9099	0.6903	9.5688
0.9093	0.6897	9.5694
0.9105	0.6891	9.5694
0.9129	0.6885	9.5688
0.9135	0.6879	9.5736
0.9129	0.6879	9.5730
0.9129	0.6867	9.5760
0.9135	0.6855	9.5766
0.9129	0.6861	9.5772
0.9135	0.6873	9.5766
0.9147	0.6879	9.5778
0.9164	0.6879	9.5790
0.9152	0.6891	9.5754
0.9147	0.6897	9.5742
0.9147	0.6885	9.5730
0.9152	0.6879	9.5712
0.9129	0.6891	9.5694
0.9117	0.6897	9.5677
0.9123	0.6897	9.5659
0.9105	0.6903	9.5665
0.9105	0.6909	9.5659
0.9105	0.6909	9.5647
0.9123	0.6909	9.5665
0.9147	0.6909	9.5677
0.9129	0.6909	9.5700
0.9123	0.6891	9.5736
0.9147	0.6891	9.5748
0.9147	0.6873	9.5724
0.9135	0.6879	9.5682
0.9129	0.6891	9.5659
0.9158	0.6927	9.5706
0.9099	0.6867	9.5611
0.9206	0.6891	9.5736
0.9135	0.6843	9.5724
0.9224	0.6855	9.5599
0.9212	0.6921	9.5802
0.9164	0.6724	9.5395
0.9236	0.7023	9.5742
0.8644	0.7065	9.5778
0.9135	0.7047	9.5318
0.8668	0.6784	9.6035
0.8991	0.6903	9.5623
0.8967	0.6843	9.5790
0.8925	0.6628	9.5910
0.9224	0.6879	9.5712
0.8620	0.6993	9.5754
0.9619	0.6921	9.5778
0.8602	0.6861	9.6053
0.9721	0.6814	9.5330
0.9009	0.6873	9.5880
0.9505	0.6808	9.5593
0.9248	0.6915	9.5682
0.9063	0.6796	9.5928
0.9410	0.6796	9.5473
0.9087	0.6951	9.5700
0.9434	0.6718	9.5623
0.9087	0.6939	9.5790
0.9009	0.6927	9.5832
0.8973	0.7059	9.5784
0.8716	0.6957	9.5994
0.8949	0.6969	9.5706
0.8847	0.6957	9.5898
0.8835	0.6784	9.5665
0.9081	0.6796	9.5772
0.8877	0.6903	9.5928
0.9278	0.6987	9.5503
0.9111	0.6831	9.5820
0.9362	0.6742	9.5754
0.9374	0.6802	9.5677
0.9440	0.6748	9.5844
0.9404	0.6724	9.5790
0.9553	0.6712	9.5587
0.9272	0.6808	9.5844
0.9123	0.6820	9.5820
0.9147	0.6688	9.5784
0.8973	0.6921	9.5850
0.8913	0.6784	9.5772
0.8877	0.6879	9.5766
0.8955	0.6993	9.5886
0.8865	0.6933	9.5730
0.9063	0.7077	9.5677
0.8907	0.6891	9.5940
0.9147	0.6760	9.5820
0.9188	0.6903	9.5635
1.0654	0.6754	9.5623
0.9147	0.6849	9.5653
0.9063	0.6778	9.5754
0.9176	0.6790	9.5862
0.9117	0.6843	9.5808
0.9236	0.6909	9.5545
0.9278	0.6831	9.5682
0.9350	0.6814	9.5515
0.9236	0.6885	9.5635
0.9212	0.6945	9.5700
0.9117	0.6772	9.5599
0.9176	0.6748	9.5742
0.8895	0.6927	9.5886
0.8895	0.6915	9.5712
0.8800	0.6969	9.5802
0.8853	0.6915	9.5958
0.8997	0.6939	9.5718
0.9200	0.7029	9.5760
0.9284	0.6676	9.5635
0.9565	0.6831	9.5515
0.9218	0.6772	9.5850
0.9212	0.6646	9.5694
0.9290	0.6855	9.5700
0.9051	0.6778	9.5688
0.9164	0.6784	9.5587
0.9176	0.6903	9.5724
0.9105	0.6933	9.5688
0.9368	0.6933	9.5665
0.9123	0.6778	9.5688
0.9386	0.6724	9.5718
0.9224	0.6802	9.5623
0.9063	0.6945	9.5629
0.9003	0.6664	9.5718
0.8794	0.6831	9.5796
0.8931	0.6873	9.5659
0.8931	0.7017	9.5748
0.9123	0.6921	9.5587
0.9326	0.6855	9.5653
0.9164	0.6861	9.5635
0.9386	0.6873	9.5671
0.9105	0.6784	9.5766
1.0702	0.6754	9.5730
0.9111	0.6700	9.5623
0.9200	0.6748	9.5826
0.9063	0.6939	9.5605
0.9236	0.6885	9.5635
0.7681	0.6999	9.5748
0.9260	0.6945	9.5712
0.9147	0.6927	9.5593
0.9212	0.6933	9.5748
0.9152	0.6736	9.5724
0.8985	0.6778	9.5706
0.9009	0.6867	9.5736
0.8913	0.6969	9.5647
0.9045	0.7149	9.5539
0.9009	0.6993	9.5718
0.9099	0.7017	9.5665
0.9176	0.6957	9.5533
0.9075	0.6915	9.5766
0.9158	0.6730	9.5569
0.9296	0.6748	9.5527
0.9170	0.6814	9.5635
0.9338	0.7035	9.5724
0.9206	0.6831	9.5712
0.9242	0.7005	9.5623
0.9033	0.6951	9.5766
0.9051	0.6945	9.5742
0.9039	0.6814	9.5653
0.9111	0.6760	9.5844
0.9260	0.6706	9.5635
0.9224	0.6933	9.5623
0.9290	0.6939	9.5808
0.9111	0.6885	9.5629
0.8985	0.7065	9.5850
0.8794	0.6909	9.5736
0.8829	0.6921	9.6071
0.8919	0.6700	9.5694
0.9158	0.6772	9.5748
0.9326	0.6730	9.5617
0.9458	0.6820	9.5617
0.9523	0.6802	9.5730
0.9260	0.6915	9.5748
0.8961	0.7023	9.5647
0.8949	0.6885	9.5928
0.8794	0.6951	9.6012
0.9009	0.6622	9.5407
0.9158	0.6939	9.5688
0.9212	0.6825	9.5820
0.9595	0.6724	9.5730
0.9051	0.6987	9.5952
0.9045	0.7011	9.5778
0.8680	0.7334	9.5724
0.8752	0.6891	9.5958
0.8823	0.6796	9.5718
0.9206	0.6790	9.5503
0.9188	0.6598	9.5724
0.9625	0.6598	9.5688
0.9164	0.6766	9.5886
0.9356	0.7184	9.5599
0.8764	0.7310	9.5940
0.8812	0.7005	9.5850
0.9176	0.6664	9.5778
0.9039	0.6778	9.5527
0.9464	0.6532	9.5551
0.9374	0.6556	9.5718
0.9218	0.6855	9.5551
0.9152	0.7160	9.5641
0.8722	0.7448	9.5868
0.8895	0.7244	9.5371
0.9099	0.6855	9.5623
0.8973	0.6580	9.5677
0.9278	0.6473	9.5539
0.9087	0.6496	9.5784
0.9051	0.7011	9.5677
0.9123	0.7113	9.5766
0.8865	0.7208	9.5772
0.9147	0.7184	9.5533
0.9272	0.6796	9.5647
1.0690	0.6646	9.5748
0.9320	0.6413	9.5491
0.8955	0.6837	9.5653
0.9135	0.6933	9.5593
0.8925	0.7101	9.5742
0.9063	0.7023	9.5587
0.9374	0.6987	9.5491
0.9266	0.6951	9.5611
0.9344	0.6550	9.5880
0.8847	0.6664	9.5832
0.8931	0.7119	9.5515
0.8728	0.6969	9.5988
0.8907	0.6987	9.5934
0.9380	0.6544	9.5647
0.9230	0.6939	9.5838
0.9368	0.6760	9.5491
0.8925	0.6987	9.5994
0.9105	0.6867	9.5712
0.8937	0.6987	9.5748
0.8782	0.7029	9.5874
0.9505	0.6814	9.5515
0.9272	0.6455	9.5922
0.9482	0.6766	9.5485
0.7723	0.7059	9.5712
0.8907	0.6945	9.5772
0.9254	0.7119	9.5760
0.8584	0.6987	9.5868
0.9511	0.6814	9.5294
0.9081	0.6676	9.5868
0.9314	0.6754	9.5647
0.9308	0.6951	9.5359
0.8674	0.7065	9.5587
0.9188	0.7214	9.5736
0.8500	0.7053	9.6065
0.9230	0.6616	9.5587
0.9111	0.6861	9.5431
0.9242	0.6831	9.5605
0.9595	0.6736	9.5533
0.9081	0.6820	9.5766
0.9200	0.7029	9.5479
0.8770	0.7166	9.5718
0.8955	0.6778	9.6047
0.9033	0.6688	9.5647
0.9075	0.6688	9.5371
0.9487	0.6730	9.5832
0.8943	0.6951	9.5916
0.9452	0.6712	9.5700
0.8746	0.7029	9.6029
0.9087	0.7071	9.5730
0.8901	0.6999	9.5886
0.8895	0.6724	9.5892
0.9410	0.6658	9.5282
0.9081	0.7089	9.5874
0.9308	0.6837	9.5682
0.9254	0.7059	9.5970
0.8961	0.6975	9.5694
0.9164	0.7131	9.5611
0.9099	0.6820	9.5880
0.9446	0.6670	9.5539
0.9069	0.6562	9.5264
0.9344	0.6897	9.5784
0.8626	0.7178	9.5976
0.9081	0.6993	9.5712
0.8895	0.7005	9.5748
0.8985	0.6915	9.5431
0.9499	0.6808	9.5587
0.9045	0.6652	9.5694
0.9164	0.6694	9.5353
0.8800	0.7220	9.5820
0.8871	0.6790	9.5850
0.9272	0.6981	9.5730
0.9188	0.6562	9.5766
0.9673	0.6736	9.5539
0.9212	0.6837	9.5796
0.9206	0.6712	9.5838
0.8704	0.6927	9.5605
0.8985	0.7029	9.5856
0.8991	0.6855	9.5880
0.9416	0.6580	9.5569
0.9446	0.6802	9.5653
0.9212	0.6957	9.5724
0.9111	0.6993	9.5772
0.8776	0.6891	9.5976
0.8734	0.6796	9.5431
0.9278	0.6891	9.5736
0.9266	0.6389	9.5892
0.9577	0.6634	9.5521
0.7729	0.7172	9.5467
0.8937	0.7262	9.5593
0.8812	0.7184	9.5730
0.8973	0.6760	9.5413
0.9164	0.6706	9.5449
0.9493	0.6766	9.5730
0.9141	0.6742	9.5808
0.9296	0.6915	9.5497
0.8997	0.7400	9.5808
0.8871	0.7172	9.5796
0.9260	0.6688	9.5844
0.9296	0.6532	9.5736
0.9511	0.6634	9.5174
0.7711	0.6951	9.5988
0.8985	0.6766	9.6161
0.9021	0.7065	9.5521
0.9033	0.7166	9.5802
0.9147	0.6891	9.5928
1.0696	0.6467	9.5730
0.9428	0.6706	9.5712
0.8841	0.6837	9.5706
0.9075	0.7238	9.5694
0.8710	0.6760	9.6006
0.9314	0.6766	9.5653
0.9158	0.6987	9.5593
0.9075	0.6885	9.5868
0.9236	0.6754	9.5700
0.8985	0.6766	9.5724
0.9164	0.7017	9.5515
0.9266	0.6903	9.6047
0.8985	0.6640	9.5760
0.9685	0.6837	9.5258
0.8788	0.7166	9.5844
0.9158	0.6927	9.5575
0.9045	0.6831	9.5934
0.8991	0.6802	9.5407
1.0714	0.7089	9.5449
0.8997	0.6664	9.5778
0.9170	0.6712	9.5419
0.9230	0.6748	9.5665
0.8770	0.7226	9.5694
0.9081	0.7184	9.5832
0.8806	0.6802	9.5946
0.9374	0.6975	9.5443
0.9164	0.6646	9.5970
0.9188	0.6885	9.6000
0.9135	0.6646	9.5443
0.9278	0.6867	9.5742
0.8889	0.7190	9.5796
0.9087	0.6999	9.5551
0.9147	0.6634	9.5778
0.9135	0.6694	9.5353
0.9248	0.6885	9.5730
0.8877	0.7131	9.5982
0.8907	0.6778	9.5527
0.9398	0.7077	9.5671
0.8985	0.7017	9.5886
0.9284	0.6646	9.5862
0.9404	0.6550	9.5581
0.8889	0.6736	9.5766
0.9170	0.7095	9.5814
0.8584	0.7149	9.5880
0.9284	0.6843	9.5742
0.9541	0.6909	9.5808
0.9470	0.6748	9.5712
0.9278	0.6975	9.5706
0.8955	0.7095	9.5940
0.8668	0.6885	9.5491
0.8967	0.6951	9.6221
0.9147	0.6544	9.5533
1.0026	0.6227	9.5641
0.9063	0.6939	9.5892
0.9105	0.7232	9.5312
0.8417	0.7059	9.6119
0.9152	0.6969	9.5509
0.9529	0.6700	9.5258
0.9176	0.6939	9.5611
0.9284	0.6778	9.5330
0.8656	0.7149	9.5629
0.8865	0.7268	9.6023
0.8829	0.6688	9.5934
0.9511	0.6622	9.6341
0.9350	0.6490	9.5377
0.9218	0.7442	9.5318
0.8542	0.7430	9.5659
0.8997	0.6502	9.5742
0.9260	0.6598	9.5802
0.9936	0.6562	9.5509
0.9595	0.6730	9.5551
0.8782	0.7585	9.5784
0.8285	0.6682	9.5641
0.9452	0.6825	9.6281
0.9051	0.6323	9.5587
1.0439	0.6658	9.5898
0.9003	0.7741	9.5832
0.8459	0.6903	9.5007
0.8441	0.7190	9.5635
0.8632	0.6395	9.5880
1.0068	0.6485	9.6287
0.9499	0.7842	9.6053
0.8494	0.6574	9.5952
0.8728	0.6766	9.4193
0.8327	0.6150	9.5868
0.9314	0.7513	9.6197
0.8788	0.8590	9.5748
0.9948	0.6018	9.5545
0.9709	0.6652	9.4875
0.9129	0.6114	9.5766
1.0307	0.7196	9.6101
0.7974	0.8118	9.6239
1.0373	0.6676	9.5264
0.8734	0.6646	9.6041
0.9141	0.5623	9.5449
0.7759	0.8088	9.5007
0.7537	0.7340	9.5682
0.9655	0.7101	9.4971
0.9081	0.4953	9.7477
0.9799	0.6018	9.5868
0.8488	0.8453	9.4935
0.8542	0.7448	9.5503
0.9990	0.7214	9.4713
1.0169	0.4313	9.7830
1.0289	0.7609	9.5461
0.8237	0.8638	9.5754
0.8459	0.7472	9.4917
0.9487	0.4181	9.6819
1.0151	0.4169	9.8117
0.8459	0.8626	9.5246
0.7777	0.9900	9.4648
0.7687	0.8602	9.5880
1.0744	0.3368	9.7734
0.9129	0.5503	9.7920
0.8829	0.9158	9.4061
0.7406	1.0116	9.4827
0.8800	0.6831	9.5168
0.9649	0.4618	9.7776
1.0032	0.5719	9.5982
0.8979	0.7830	9.5066
0.9057	0.6443	9.4875
0.9511	0.6514	9.5443
1.0175	0.5946	9.6406
0.9170	0.6389	9.6209
0.9846	0.6138	9.5515
0.7723	0.7789	9.5204
0.9870	0.8046	9.3954
0.8471	0.6419	9.7304
1.1384	0.4923	9.6017
0.8554	0.8225	9.5521
0.7830	0.9511	9.1393
0.8357	0.6963	9.7100
0.9093	0.2530	9.7011
0.9021	0.7388	9.8291
0.8572	0.9840	9.3146
0.8578	0.9254	9.4343
1.0044	0.2171	9.5832
0.9822	0.5515	9.8105
0.9152	0.8076	9.4426
0.8596	1.0235	9.4181
0.9404	0.4576	9.4277
1.2227	0.6389	9.6053
0.9302	0.7047	9.4953
0.8883	0.8261	9.4809
0.8680	0.5533	9.6993
0.9631	0.6185	9.5641
0.7675	0.8076	9.5772
0.9123	0.6646	9.5174
0.8082	0.7286	9.7280
1.0163	0.7370	9.4325
0.8530	0.9577	9.5030
1.0756	0.6377	9.5593
0.7561	0.7986	9.6335
0.9027	0.5581	9.4707
0.9607	0.6335	9.5790
0.9440	0.5970	9.4815
0.8728	0.7896	9.5946
0.8740	0.6060	9.6137
1.0702	0.4744	9.7525
0.7801	0.5450	9.5623
0.8548	1.0223	9.6012
0.7789	0.7561	9.3912
1.1049	0.4612	9.7363
0.8046	0.4654	9.6053
0.8441	0.9822	9.4516
0.8626	0.8788	9.4743
1.0409	0.5294	9.6610
0.8399	0.7214	9.5976
0.7484	0.9386	9.5192
0.9344	0.7047	9.6346
0.9864	0.4134	9.6777
0.9685	0.8447	9.3158
0.8967	0.8435	9.4929
1.0002	0.6694	9.5120
1.0211	0.5354	9.8033
0.9661	0.6574	9.5252
0.7328	0.8674	9.5880
0.8620	0.4660	9.5371
0.9852	0.8016	9.6227
0.8740	0.5701	9.5084
0.9093	0.7537	9.6179
0.8853	0.6233	9.6000
0.8919	0.9152	9.5515
0.9404	0.6670	9.7202
0.8554	0.5061	9.7633
0.9691	0.8471	9.5682
0.8823	0.7609	9.4570
0.9876	0.5593	9.5802
0.8662	0.4421	9.7698
0.8483	0.8351	9.5988
0.9416	0.6885	9.5240
0.8638	0.2800	9.5431
0.7956	0.9996	9.4307
0.7759	1.0504	9.4528
1.1156	0.5414	9.8267
1.0624	0.5462	9.8171
0.8716	1.0086	9.5467
0.9900	0.8273	9.5551
1.0995	0.0502	9.6239
0.8818	0.9087	9.6837
0.8261	0.9152	9.1130
0.9505	0.5599	9.7441
0.9960	0.3159	9.4684
0.7675	1.0648	9.4719
0.9188	0.7023	9.5383
0.9176	0.3206	9.7866
1.0307	0.7854	9.4331
0.8650	0.8321	9.2572
1.0289	0.5157	9.3822
0.9308	0.6808	9.7483
0.8142	0.8267	9.3308
0.9236	0.8542	9.6861
0.8512	0.5300	9.5353
0.8692	0.8351	9.6275
0.8979	0.6030	9.3050
0.9476	0.5785	9.6891
0.7950	0.8877	9.4199
0.7053	0.8058	9.6454
1.0110	0.4307	9.6245
0.8058	0.6365	9.6544
0.8142	0.8823	9.3637
0.8973	0.4989	9.7890
1.0552	0.3787	9.7645
0.9864	0.9858	9.5503
0.8847	0.8853	9.4576
1.0720	0.5330	9.7052
0.9553	0.6221	9.5790
0.8183	0.9781	9.5192
0.8572	0.5055	9.7513
1.0157	0.3404	9.7764
0.8303	0.9822	9.4827
0.7950	0.9559	9.1363
0.9894	0.5192	9.6897
0.9751	0.5713	9.6346
0.7412	1.0295	9.3649
0.9272	0.7501	9.5677
1.0355	0.4445	9.7357
0.9864	0.7938	9.4707
0.8722	0.7358	9.4163
0.9637	0.2853	9.6969
0.9069	0.8046	9.4797
0.8770	0.9565	9.1746
0.9870	0.8112	9.4349
0.9517	0.5539	9.7459
0.9470	0.8004	9.5671
1.0486	0.7298	9.8111
0.7872	0.2943	10.0169
0.7962	0.8165	9.6317
0.8794	0.8243	9.4636
1.0744	0.3284	9.6771
0.8883	0.7160	9.5204
0.9188	0.9643	9.6143
1.2120	0.4104	9.7316
0.8339	0.4606	9.6293
0.6628	1.2484	9.2404
1.0044	0.7561	9.5665
1.0971	-0.1507	9.8763
0.7944	0.9302	9.4570
0.8165	1.4477	8.9659
1.1958	0.2255	9.7196
0.9206	0.4666	9.8715
0.7155	1.3543	9.3350
0.9811	0.5683	9.6215
1.0486	-0.0598	9.7477
0.5563	1.1958	9.4492
0.8698	1.0367	9.6711
1.1121	0.0873	9.9206
0.8345	0.8889	9.9092
0.8488	0.9224	9.3972
1.1725	0.3882	9.6897
0.9978	0.5958	9.4695
0.6993	0.9272	9.3140
1.0337	0.6987	9.2721
0.9793	0.6347	9.8321
0.7077	0.8225	9.4444
0.9559	0.8159	9.5611
0.8554	0.5940	9.5868
0.9003	0.9057	9.4995
0.8955	0.7226	9.5174
0.7944	0.6269	9.7627
0.7872	0.8901	9.7022
0.8710	0.6449	9.5611
1.0181	0.3912	9.7621
0.9787	0.7938	9.4414
0.9386	0.7699	9.3834
1.2018	0.3906	9.4791
1.0486	0.6592	9.6574
0.8028	0.9745	9.2010
0.9846	0.6550	9.6382
0.9990	0.1430	9.7776
0.6957	0.9960	9.5629
0.7406	0.8818	9.3176
1.1139	0.1184	9.5216
0.7986	0.7543	9.5772
0.6700	1.2209	9.0382
0.9822	0.6144	9.7399
0.8154	0.6311	10.1724
0.6556	1.0445	9.5180
1.0887	0.8040	9.5641
0.8710	0.3697	9.7746
0.8578	0.9523	9.6095
1.0343	0.9954	9.5342
1.0845	0.2704	9.9403
0.9105	0.7268	9.6789
1.0893	0.9482	9.2727
0.9589	0.3093	9.5934
1.0181	0.3458	9.5001
1.0325	0.8722	9.5306
1.0128	0.3679	9.5659
0.8566	0.4893	9.5007
0.8530	0.8195	9.3254
0.9529	0.8453	9.4211
0.7902	0.6891	9.6687
0.7131	1.0433	9.5545
1.0738	0.8752	9.6801
0.7747	0.4678	9.6939
0.7358	0.9972	9.3284
0.8680	0.9362	9.4552
0.9858	0.3978	9.5306
0.6502	0.8931	9.5617
0.7699	0.8650	9.3637
1.1880	0.0766	9.6251
0.8207	0.6538	9.3116
0.8100	0.9290	9.0765
1.3166	0.4714	9.6053
1.1719	0.5952	9.6771
0.7657	1.0379	9.2721
1.0893	0.6359	9.7932
1.1563	0.3284	9.9684
0.6275	0.8698	9.5724
0.8907	0.7041	9.3990
1.1557	0.3517	9.8506
0.8841	0.8417	9.6155
0.8997	1.2155	9.3613
0.9290	0.5976	9.8045
0.8764	0.7328	9.7340
0.4768	1.0397	9.1429
0.8106	0.5880	9.5401
0.9511	0.6891	9.5653
0.7962	0.9033	9.6245
0.9111	0.8764	9.5180
1.0911	0.6323	9.8321
0.8800	0.6598	9.6161
0.8871	0.5773	9.3744
0.9111	0.7489	9.4564
0.9188	0.7388	9.4354
1.1300	0.5354	9.7836
0.9990	0.3900	9.9242
0.9517	0.6054	9.5347
1.2389	0.6742	9.4713
0.8554	0.4295	9.1357
0.7220	1.0630	9.0053
0.9188	1.0086	9.2542
0.9278	0.5157	9.6352
0.4642	0.9248	9.6239
0.6927	1.0301	9.4109
1.1438	0.2638	9.6717
0.7507	0.3224	9.5868
0.5342	1.1850	8.8983
1.1462	0.6485	9.4426
1.0588	0.2453	9.5186
0.7663	1.1360	9.6071
1.0540	0.8459	9.7920
1.3717	-0.0820	9.9092
0.6347	0.7819	9.6311
0.7286	1.2161	8.7553
1.0971	0.1244	9.3104
0.9625	0.7609	9.4839
0.6449	1.2215	9.5108
1.3107	0.4002	9.9810
1.3747	0.4696	9.9481
0.5127	0.8788	9.7148
0.9511	0.7119	9.3003
1.1414	0.5910	9.4755
0.4343	1.0032	9.5060
0.7902	0.7824	9.1304
0.9655	0.6646	9.8548
0.6443	0.6365	9.8877
0.7663	0.6335	9.7005
1.1150	0.5210	9.7112
0.8979	0.3918	9.4917
0.9284	0.7555	9.3565
0.8536	0.6969	9.5102
0.8375	0.8560	9.4917
1.0128	0.8064	9.5557
0.9535	0.6993	9.4337
0.8806	0.8500	9.4857
1.0217	0.6042	9.3457
1.1396	0.7310	9.2781
0.7789	0.8297	9.5874
0.8632	0.6670	9.3888
1.0905	0.5647	9.7465
0.8249	0.6975	9.7046
0.5605	0.8243	9.4061
1.0869	0.6891	9.5066
1.0498	0.4768	9.6209
0.7735	0.9553	9.6676
1.1503	0.6676	9.5694
1.2586	0.4062	9.8141
0.8572	0.9135	9.6562
0.8076	0.9123	9.3212
1.0451	0.1017	9.7758
0.6419	0.7489	9.5018
0.6287	1.0804	8.8875
1.1139	0.2818	9.5258
0.9278	0.5330	9.7447
0.6347	1.0169	9.2339
1.1809	0.6461	9.6580
1.2718	0.4140	9.8356
0.4816	1.0486	9.5886
1.1127	0.7095	9.2010
1.3059	0.4319	9.7758
0.7597	1.0301	9.7178
1.0947	0.9870	9.3344
1.1497	0.4726	9.9009
0.7519	0.8363	9.8494
0.7160	1.0469	9.5443
0.7908	0.5055	9.6843
0.5635	0.8052	9.6747
0.6580	0.9362	9.3996
0.7489	0.6000	9.4558
0.7711	0.4935	9.5300
0.9398	0.7119	9.5353
1.1204	0.6455	9.3038
0.9027	0.6066	9.4486
0.9493	0.5252	9.4211
1.2490	0.5641	9.4037
0.9715	0.5157	9.6305
0.9021	0.6024	9.4845
1.2724	0.6341	9.4839
1.0146	0.5898	9.6012
0.8058	0.7268	9.5802
1.0181	0.6796	9.3469
0.8644	0.5438	9.5820
0.6383	1.0421	9.4223
0.6341	0.8405	9.6173
1.0947	0.3846	9.8566
0.7693	0.8249	9.4713
0.8255	0.8022	9.6520
1.1880	0.2327	9.9559
0.7633	0.9350	9.3601
0.7119	0.9123	9.0412
0.9093	0.3828	9.4145
0.9266	0.7723	9.5814
0.7836	0.9470	9.3212
1.1067	0.5779	9.7070
1.1599	0.5031	9.7232
0.5880	0.8776	9.4713
0.9493	0.7172	9.2141
1.0905	0.7316	9.4893
0.6496	0.9517	9.6083
1.0325	0.8082	9.4869
1.1605	0.5497	9.6915
0.8518	0.7513	9.6999
1.0875	0.6227	9.5377
1.0211	0.3900	9.7806
0.9170	0.4798	9.5204
1.0403	0.6156	9.5102
0.8070	0.4498	9.8039
0.7561	0.6305	9.7334
0.9655	0.9571	9.6251
0.8955	0.3942	9.7746
0.7902	0.5821	9.5419
0.9643	0.9344	9.3840
1.0409	0.2931	9.5485
0.6760	0.6736	9.5718
0.8124	1.0481	9.5742
0.9559	0.6730	9.5222
0.6467	0.6778	9.7627
0.6556	1.0277	9.5120
1.1294	0.6574	9.5976
0.9553	0.5665	9.6035
0.7095	0.8901	9.4193
1.2084	0.6532	9.6257
1.0768	0.5348	9.7621
0.6251	0.8249	9.3990
0.9511	0.5623	9.4169
1.0744	0.4211	9.8650
0.7334	0.6598	9.5802
0.8453	0.7992	9.3104
1.1940	0.3194	9.3015
0.9200	0.6640	9.5144
0.8315	0.7519	9.5742
0.9356	0.6347	9.8021
0.8339	0.7113	9.9702
0.5168	0.7543	9.3984
0.8644	0.7484	9.1280
0.9051	0.6592	9.4755
0.9805	0.7884	9.5712
0.9410	0.7986	9.6568
0.9499	0.6263	9.6227
0.9440	0.7011	9.5976
1.0606	0.6114	9.5066
0.9164	0.6144	9.6502
0.8554	0.7789	9.4414
1.1850	0.6670	9.5180
0.8614	0.8584	9.7363
0.7866	0.9649	9.5120
1.2562	0.6215	9.5521
0.8536	0.7854	9.9032
0.7687	1.0008	9.6735
1.2114	0.6317	9.7375
0.8566	0.5228	9.6000
0.5629	1.0337	9.2189
1.0157	0.5749	9.5347
1.0941	0.3482	9.6305
0.6144	0.8309	9.3876
0.9924	0.5671	9.6466
1.2365	0.4104	9.9535
0.6586	0.6479	9.5479
1.0116	0.8387	9.1890
1.1480	0.6526	9.4701
0.6096	0.6837	9.4749
0.8177	0.9081	9.2847
1.0642	0.6843	9.8626
0.9236	0.4098	9.8662
0.6239	0.8165	9.7663
1.0044	0.6754	9.4881
1.0540	0.4169	9.6658
0.8142	0.8148	9.6143
0.8417	0.8291	9.4803
0.8991	0.7579	9.5336
1.0469	0.7166	9.6406
0.9649	0.5318	9.6245
0.9027	0.8674	9.6424
1.1797	0.6496	9.4546
0.9458	0.4355	9.5042
0.8393	0.9954	9.2632
0.9081	0.7071	9.2267
1.1228	0.3194	9.4432
0.8130	0.9147	9.4935
0.8189	0.8219	9.5365
1.1976	0.3063	9.7232
0.8243	0.8429	9.5090
0.6042	0.9697	9.4378
1.0720	0.4020	9.4313
0.8237	0.7543	9.4025
0.6502	1.0905	9.1591
1.0277	0.7412	9.4349
1.1186	0.7854	9.7226
0.5695	0.8435	9.5659
1.0223	0.6861	9.4935
1.1109	0.3745	9.8010
0.4750	0.5222	9.5383
1.0014	0.9051	9.2835
1.0881	0.6933	9.6113
0.7627	0.7926	9.5024
1.1462	0.9505	9.0658
1.0744	0.7513	9.6251
0.9619	0.5168	9.7579
1.0008	0.8243	9.5898
0.9314	0.6610	9.5760
0.8907	0.4857	9.6652
0.9912	0.5904	9.6693
0.8207	0.7723	9.6287
0.7250	0.7232	9.5724
1.0851	0.6042	9.7220
0.9607	0.8279	9.6125
0.6479	0.8674	9.4008
1.1145	0.4128	9.7794
1.0475	0.6508	9.7292
0.5755	0.9709	9.5826
0.9751	0.5611	9.6831
1.1647	0.7633	9.9834
0.5683	0.9751	9.4618
0.9081	0.7155	9.6963
1.3543	0.5677	9.7250
0.5515	0.8225	9.7722
0.8943	0.7878	9.4606
1.1599	0.5928	9.2697
0.8130	0.7926	9.5569
0.9380	0.5970	9.3140
1.1791	0.6909	9.5653
0.8853	0.6969	9.8679
0.9978	0.4756	9.5276
1.0678	0.5061	9.7489
0.8500	0.6712	9.5647
1.1557	0.5527	9.4869
0.9547	0.6694	9.7118
0.6999	0.6574	9.5114
1.0104	0.8662	9.6711
0.9135	0.6849	9.7100
0.6024	0.7950	9.6412
0.9571	0.6766	9.7441
0.8991	0.8130	9.4833
0.5474	0.8327	9.3643
0.8375	0.8764	9.5437
1.1635	0.6359	9.6263
0.7143	0.6927	9.6113
0.9888	0.8183	9.6382
1.3143	0.6490	9.7346
0.7669	0.5216	9.4725
0.9733	0.7819	9.2010
1.1019	0.4594	9.4103
0.8130	0.6150	9.6101
0.9326	0.7789	9.3846
1.3501	0.6479	9.8584
0.9930	0.8261	9.9553
0.8973	0.8465	9.5306
1.1623	0.8524	9.7088
0.7316	0.9129	9.5551
0.7615	0.7304	9.7621
0.8213	0.9781	9.8045
0.4098	0.7370	9.5150
1.0648	0.5468	9.8105
0.9410	0.8207	9.7878
0.5264	0.5228	9.4331
1.1797	0.4229	9.8907
0.9817	0.6173	9.5048
0.7095	0.5324	9.3643
1.2167	0.4534	9.4630
1.0756	0.7298	9.2386
0.9027	0.7478	9.1872
1.0696	0.6724	9.4522
1.2413	0.3966	9.7405
0.8883	0.8560	9.5419
0.8835	0.6628	9.4761
1.1910	0.4433	9.7902
0.6108	0.9081	9.6544
0.7089	0.8734	9.2697
1.0726	0.6048	9.5288
0.6957	0.9404	9.4181
0.8758	0.8692	9.3218
1.1743	0.7914	9.6628
0.8004	0.6281	9.5952
1.0247	0.6742	9.4791
0.9793	0.8788	9.5515
0.7896	0.3733	9.5892
0.9715	0.5665	9.5042
0.7980	0.9541	9.4366
0.8082	0.4732	9.5013
0.9846	0.9069	9.6053
0.7238	1.2173	9.5174
0.6754	0.8010	9.5790
0.8919	0.9900	9.8081
0.4265	1.1127	9.4869
0.7232	0.7454	9.5425
0.8530	0.4277	9.9164
0.7196	0.7352	9.4354
0.8596	0.7585	9.3397
0.9948	0.1944	9.4169
1.0678	0.6724	9.6945
1.1133	0.7394	9.6215
1.1276	0.0167	9.6598
1.3711	0.5970	9.7896
0.8393	0.7992	9.1322
1.2467	0.0652	9.4133
1.3280	0.7645	9.8321
0.6502	0.7639	9.2105
1.3334	0.0024	9.3738
0.8692	0.8022	9.2811
0.5312	0.9248	9.3290
0.8106	0.7190	9.6795
0.5282	0.9272	9.5826
0.7292	1.0337	9.9086
0.7729	1.1749	9.5557
0.4720	1.1234	9.1992
0.8626	0.8082	9.8225
0.9105	1.0816	9.1692
0.6293	0.8100	9.5353
1.1557	0.7765	9.6562
0.8991	0.4738	9.6753
0.9308	0.2973	9.7100
1.0433	0.3296	9.5928
0.9170	0.2566	9.7166
0.6837	0.6036	9.6652
0.9655	0.3906	9.2775
1.2927	0.3649	9.6861
0.9033	0.9978	9.3996
1.3998	0.4816	9.2392
1.6528	0.6353	9.7208
1.0313	1.2114	9.3367
1.2443	0.6730	9.4552
1.4566	0.6144	9.7357
0.5282	0.9900	9.6532
0.7783	0.3200	9.9086
1.0546	0.5557	9.6592
0.2710	0.7394	9.9026
0.5115	0.7896	9.4343
0.7783	0.7214	9.4259
0.3775	0.6191	9.8691
0.8554	0.9709	9.5862
0.7645	1.2473	9.5264
0.6873	1.0355	9.5790
1.1186	0.9493	9.5820
1.1228	1.1378	9.6430
0.9272	0.7579	9.6580
1.0014	0.7669	9.5874
0.9356	0.6831	9.7220
0.5695	0.3368	9.4049
0.8961	0.0473	9.3559
0.8333	0.5503	9.4331
0.7747	0.2949	9.2141
1.0080	0.3703	9.7507
1.0881	0.7615	9.4953
1.1037	0.7962	9.2368
1.1150	0.6849	9.5156
1.2036	0.7166	9.3529
1.0498	0.7890	9.7734
1.2419	0.3470	9.4169
1.1456	0.5886	9.5509
0.7615	1.1701	9.1902
0.8895	0.4857	9.0269
0.8219	0.8016	9.6095
0.5240	1.0217	9.5036
0.6221	0.5318	9.5910
0.4116	0.9703	9.7172
0.3649	0.7795	9.5485
0.8955	0.5372	9.6466
0.6796	0.8429	9.4851
0.9811	0.6831	9.4343
0.9852	1.1707	9.5653
0.8746	0.9613	9.3134
1.3663	0.6437	9.8691
1.1653	0.7507	9.6251
0.7902	0.8853	9.5712
0.9954	0.7005	9.7926
1.1091	0.3637	9.9092
0.7705	0.4463	9.8985
0.9158	0.2405	9.6131
1.2514	0.2800	9.7794
0.4899	0.6347	9.9355
0.9930	0.3015	9.2973
1.5302	0.4827	9.8243
0.6275	1.2233	9.4085
1.1749	0.5192	9.4731
1.4465	0.9188	9.6466
0.5910	1.0337	9.6275
1.1043	0.5115	9.8093
1.2879	0.5085	9.4444
0.6335	0.6425	9.9625
1.0163	0.7208	9.6191
0.9464	0.6688	9.4157
0.7328	0.5940	9.8291
0.7801	0.9487	9.6173
0.9218	0.8082	9.4893
0.9954	0.8895	9.9756
0.8608	0.9039	9.3230
0.9595	0.9763	9.7022
0.8530	0.7896	9.5778
0.9170	0.4660	9.7567
0.6837	0.9894	9.7555
0.6508	0.5922	9.3218
1.0068	0.2668	10.0223
0.8267	1.0588	9.3834
0.7711	0.6066	9.4103
1.1109	0.3894	9.9373
0.9667	0.7166	9.3720
0.8548	0.7160	9.3732
1.4764	0.2530	9.9326
1.0672	0.6167	9.8386
0.8758	0.6981	9.4133
1.3226	-0.0634	9.3804
0.8082	0.6479	9.6723
0.6114	0.6754	9.0801
1.0893	0.2800	9.4797
0.7657	0.6802	9.8410
0.7543	0.8698	9.3296
1.1629	0.6706	9.6412
0.8100	0.9607	9.4337
0.7866	1.3202	9.5587
1.0241	1.1252	9.5377
0.9691	0.9380	9.6825
0.6479	1.2425	9.8943
0.9218	0.8554	9.2153
0.7651	0.9757	9.7615
0.3625	0.7651	9.6681
0.5815	0.6999	9.2997
0.3834	0.7747	9.4205
0.5354	0.3033	9.5018
0.7322	0.7609	9.5383
0.5815	0.8644	9.4815
1.2855	0.4917	9.3373
1.3226	0.7747	9.7064
1.0690	0.9212	9.2859
1.6068	0.7525	9.6233
1.5816	0.5097	9.7483
1.0887	0.6257	9.2895
1.3148	0.6843	10.0917
0.9805	0.2309	9.6687
0.6395	0.6604	9.6059
0.6814	0.7184	9.4486
0.6825	0.1143	9.4109
0.2883	0.8788	9.7459
0.6951	0.8411	9.0705
1.0558	0.9129	9.5940
0.6167	1.0833	9.7256
1.1575	1.0253	9.2362
1.1354	1.3376	9.6179
0.7280	0.8602	9.4307
1.2030	0.7878	9.6436
1.1755	0.9464	10.0091
0.5850	0.6221	9.6873
1.0630	0.3553	9.6317
1.0169	0.3787	9.8219
0.5952	0.1454	9.5647
0.9188	0.3631	9.5922
1.1946	0.4301	9.7734
0.8698	0.5767	9.6352
1.1276	0.4911	9.4450
1.4333	0.7830	9.4713
0.8578	0.9912	9.6346
1.1623	0.7250	9.3320
1.3501	0.9123	9.6909
0.5007	1.1091	9.6221
0.8261	0.6975	9.3080
0.8417	0.9553	9.5694
0.3482	1.0325	9.5288
0.7603	0.4433	9.5653
0.7531	0.7699	9.6412
0.6000	0.8506	9.6580
0.8841	0.6574	9.6029
0.8243	0.6556	9.5413
0.9511	0.6544	9.7166
1.1258	0.6951	9.7609
1.0654	0.6694	9.3062
1.1671	0.6550	9.7184
1.0588	0.8273	9.2231
1.0265	0.6209	9.4438
1.0146	0.5922	9.9391
0.8321	0.6766	9.4438
0.8638	0.7860	9.4660
0.9093	0.6179	9.4791
0.8566	0.4199	9.5066
0.7196	0.9063	9.7405
0.9894	0.5563	9.3290
0.8865	0.5270	9.8871
0.6837	1.1408	9.3278
0.7436	0.7998	9.0693
1.0074	0.5934	9.6891
0.7890	1.0080	9.3314
1.0343	0.7005	9.4785
1.1725	0.3906	9.8075
0.6580	0.7902	9.3738
0.8650	0.2160	9.3068
1.1761	0.0814	9.5617
0.6455	0.6873	9.6915
0.9553	0.5862	9.5605
1.1695	0.5623	9.7046
0.7830	0.8171	9.7076
1.0289	0.8740	9.3218
1.1414	0.4959	9.8339
0.7567	0.9458	9.9391
0.7944	1.0463	9.4719
1.0875	0.4439	10.1024
0.6670	0.7047	9.8733
0.6784	0.7184	9.3649
1.0564	0.3242	9.7316
0.6568	0.6514	9.5533
0.8871	0.6245	9.3625
1.4040	0.4899	9.5060
0.7400	0.5826	9.5569
0.9248	0.4750	9.2422
1.3675	0.7466	9.3954
0.5145	0.7495	9.3308
0.8662	0.9876	9.3673
0.9978	0.8746	9.3738
0.7017	0.5246	9.4211
0.5797	1.0917	9.7130
0.8159	0.9284	9.3326
0.7388	1.0062	9.6789
0.7238	0.8375	9.7962
0.9176	0.6526	9.3164
0.7244	1.0522	9.7543
0.8136	0.6461	9.7758
1.1264	0.3655	9.7196
0.9727	0.6556	9.9122
1.1366	0.3900	9.6568
1.4895	0.3368	9.5342
1.0050	0.6532	9.7322
1.1779	0.2034	9.5629
1.3208	0.5216	9.7142
0.7717	0.7436	9.6664
1.1384	0.2788	9.6065
1.1103	0.7579	9.7334
0.7735	0.9613	9.2733
0.9828	0.6485	9.6472
0.9571	0.8339	9.7675
0.6766	0.7801	9.6406
0.8590	0.9691	9.7357
0.6951	1.0014	9.6681
0.6000	0.8183	9.7417
0.6831	0.7830	9.6873
0.6024	0.7926	9.5934
0.6981	0.7872	9.5078
0.8500	0.6873	9.6556
0.9452	0.5390	9.5048
1.0415	0.6317	9.5395
1.1426	0.8506	9.4857
1.1749	0.4804	9.3846
1.1372	0.6879	9.5162
1.1240	0.7268	9.1268
1.0175	0.4367	9.7064
0.8572	0.8315	9.5575
0.9673	0.6556	9.6388
0.9751	0.7424	9.7340
0.6993	0.6766	9.4576
1.0044	0.7884	9.7627
0.8351	0.8913	9.9708
0.5360	0.5725	9.5503
1.0020	0.5695	9.9786
0.7645	0.7645	9.6532
0.6568	0.5001	9.1196
1.2999	0.5677	9.5742
0.8991	0.7813	9.3547
0.9709	0.4594	9.0370
1.3830	0.6897	9.7501
0.8411	0.7645	9.0610
0.9505	0.4325	9.0957
1.3519	0.4678	9.4917
0.5474	0.9260	9.1519
0.6568	0.7244	9.3679
1.2700	0.4516	9.6012
0.5456	0.8512	9.5694
0.4313	0.9152	9.5347
1.2215	0.4451	9.6837
0.8315	1.1270	9.6364
0.3888	0.9535	9.6424
1.0624	0.4528	9.6460
0.7735	0.7902	9.7495
0.3559	0.7388	9.4301
1.0116	0.2285	9.4085
0.8841	0.9673	9.6490
0.5587	0.8650	9.2793
1.2808	0.2554	9.5790
0.9757	0.9619	9.8536
0.7280	0.8716	9.2416
1.1192	0.7962	9.5593
0.8686	0.9978	9.5371
0.7268	0.4804	9.7304
1.0696	0.6867	9.6532
0.6323	0.8183	9.4049
0.6538	0.9380	9.7022
1.0475	0.6622	9.2530
0.9398	0.4995	9.4935
0.5898	0.7830	9.7680
0.9320	0.4786	9.1537
0.9709	0.7597	9.5844
0.7663	0.8082	9.7507
1.1509	0.3625	9.5473
1.1426	1.0086	9.8051
0.8578	0.5898	9.6131
1.3214	0.4732	9.5539
0.8889	1.0570	9.7011
0.6580	0.4337	9.5718
1.0504	0.5354	9.4839
0.4504	0.8500	9.4432
0.7131	0.4977	9.3948
0.9326	0.6311	9.5078
0.6927	0.8088	9.5515
0.9224	0.7238	9.7387
0.9769	0.6281	9.7686
0.9960	0.7256	9.5072
0.9111	0.7442	9.6065
1.1396	0.3972	9.5545
0.9129	0.7280	9.7740
0.9517	0.7789	9.5706
1.1958	0.5497	9.4151
0.7663	0.7962	9.5736
0.7190	0.8477	9.3236
0.8118	0.6915	9.6388
0.5880	0.6814	9.5413
0.8004	0.8650	9.5168
0.9876	0.9129	9.6424
0.8171	0.8602	9.3852
0.9511	0.9757	9.5419
1.0600	0.9434	9.6640
0.6233	0.6185	9.4815
0.9158	0.7615	9.8303
1.0744	0.7454	9.5336
0.7747	0.3775	9.4941
1.1252	0.5324	9.6915
1.0821	0.7131	9.6454
0.9464	0.4451	9.5377
1.2598	0.5109	9.5916
1.0331	0.5850	9.7968
0.7998	0.6036	9.6747
1.1204	0.6628	9.7375
0.9087	0.4193	9.6783
0.7424	0.8794	9.3834
0.8650	0.5964	9.5461
0.9966	0.7322	9.7082
0.6706	0.9607	9.3954
0.8967	0.6173	9.7848
1.0516	0.8823	9.8925
0.2489	1.0193	9.4103
0.9523	0.8488	9.4612
1.1097	0.8405	9.5318
0.5850	0.7705	9.6017
1.3567	0.6646	9.6394
0.9691	0.5749	9.6113
0.8471	0.5420	9.8895
1.1880	0.6568	9.5234
1.2311	0.3978	9.4271
0.7920	0.8249	9.9068
1.0905	0.8136	9.1782
1.4566	0.5862	9.6825
0.7914	0.9655	10.1838
1.0313	0.9296	9.1190
1.2825	0.9063	10.2203
0.6640	0.8303	9.9332
0.9625	0.4977	9.3720
1.3101	0.4032	10.0325
0.5850	0.5892	9.5270
0.8728	0.6790	9.5455
1.0624	0.7095	9.7525
0.5145	0.5007	9.3523
0.8566	0.5216	9.6741
1.3304	0.6760	9.3816
0.7591	0.7454	9.7011
1.0146	0.8363	9.5970
1.2682	0.6353	9.2572
0.8542	0.4983	9.9541
1.1348	0.5007	9.7405
1.0098	0.5575	9.4151
0.6993	0.9589	9.7956
0.9900	0.5821	9.4965
0.9679	0.5426	9.8727
0.9362	0.9362	9.5790
1.0546	0.5809	9.3690
1.1563	0.7962	9.6789
0.8010	0.9601	9.5234
0.9685	0.4941	9.7250
0.9003	0.8375	9.7561
0.5767	0.6891	9.5982
0.9093	0.5055	9.7639
0.6837	0.7603	9.6670
0.6766	0.7125	9.5503
0.8752	0.9619	9.6017
0.8417	0.7472	9.6215
0.8016	0.8207	9.5671
0.8183	1.0080	9.4767
0.9966	0.7980	9.5174
0.7771	0.9051	9.6029
0.9290	0.9105	9.4941
1.0606	0.7208	9.8380
0.6084	0.6831	9.7507
1.0845	0.5228	9.5431
0.8668	0.7753	10.0259
0.6185	0.3781	9.4055
1.1737	0.5133	9.8668
0.8327	0.8644	9.4247
0.8070	0.5198	8.8193
1.3160	0.7639	9.8039
1.0630	0.7412	9.3481
0.9117	0.7597	9.7962
1.3747	0.6867	9.8392
1.0319	0.5396	9.3607
0.7549	0.7591	9.7854
1.5284	0.4032	9.6723
1.2443	0.4271	9.9379
0.7304	0.6778	9.8267
0.9781	0.4122	9.4229
1.0666	0.4026	9.7992
0.5091	0.8859	9.6352
0.8883	0.4307	9.4534
1.3693	0.4451	10.0959
0.5695	0.9290	9.6867
1.0827	0.5868	9.3391
1.4124	0.6975	9.9266
0.5318	0.9248	9.7375
0.9763	0.7621	9.5084
1.0660	0.4146	9.8632
0.6156	0.7041	9.6693
0.7370	0.8369	9.3864
1.0594	0.4534	9.6203
0.7119	0.8429	9.6592
0.5785	0.9709	9.0825
1.0810	0.3338	9.0239
0.7830	0.9308	9.5682
0.4618	0.9529	8.9617
1.1198	0.6718	9.4343
0.8823	0.9775	9.9565
0.4552	0.8494	9.7758
1.0816	0.6191	9.4695
0.9864	0.9045	9.7944
0.6676	0.8596	9.8111
1.0080	0.5809	9.5521
1.0720	0.5581	9.5371
0.6365	0.8154	9.6927
0.9685	0.5252	9.3110
1.3603	0.3045	9.5503
0.9278	0.7914	9.6843
1.2802	0.6742	8.9563
1.4674	0.4409	9.7902
1.1713	0.8800	9.7262
1.2353	0.5527	9.4331
1.4046	0.3745	9.7411
0.7717	0.6897	9.6125
0.9218	0.7083	9.6502
1.1480	0.4277	9.9547
0.6203	0.3159	9.5994
0.8082	0.7322	9.8512
0.7537	0.6520	9.8452
0.6520	0.6449	9.6418
0.8644	0.8961	9.9134
0.8465	0.7017	9.3583
0.8883	0.7346	9.4492
0.8608	1.0116	9.6801
0.8022	0.9487	9.3966
0.7507	0.6909	9.5599
0.8734	0.5575	9.6400
0.7430	0.6006	9.4606
0.7298	0.4654	9.4875
0.8680	0.6784	9.7669
0.8177	0.6209	9.7005
0.9410	0.8518	9.6789
0.8901	0.5252	9.7459
1.1797	0.6485	9.6705
0.8632	1.0325	9.4995
0.8423	0.7053	9.4390
1.1898	0.5324	9.6221
0.7657	0.9176	9.5222
0.8991	0.5635	9.2171
1.0319	0.5557	9.5748
0.5635	0.8853	9.3427
0.6999	0.6341	9.1393
0.9230	0.5384	9.7268
0.6473	0.7711	9.5682
0.8393	0.6945	9.1543
1.3244	0.5928	9.3517
1.1563	0.8548	9.5228
0.8823	0.8010	9.4014
1.3143	0.6963	9.5964
1.1420	0.5874	9.4474
0.4696	0.8931	9.5665
0.9099	0.7878	9.5473
1.0253	0.8028	10.1635
0.4810	1.0175	9.8991
0.8566	0.7591	9.7070
1.2514	0.5426	9.9780
0.4630	0.9254	9.7405
0.7262	0.6951	9.5742
1.2490	0.3828	9.7525
0.6969	0.6467	9.7417
0.8758	0.4827	9.1423
1.4632	0.3194	9.3690
1.0738	0.7232	9.3673
0.9805	0.6287	9.1405
1.4291	0.2776	9.4689
1.0522	0.4887	9.7100
0.8536	0.6802	9.2973
1.2042	0.4385	9.5180
0.9517	0.6371	9.6287
0.4678	0.7585	9.2578
0.9464	0.7747	9.1866
0.7029	0.8776	9.4085
0.5677	0.9577	9.1806
0.7178	1.0481	9.5060
0.3697	0.9691	9.6508
0.6060	0.9458	10.0217
0.6664	1.0223	9.6993
0.7041	0.8530	9.5754
0.9093	0.7567	9.8769
1.0116	0.7717	9.5551
0.9386	0.6371	9.5024
1.0163	0.6694	9.7196
0.9601	0.5121	9.6053
1.1803	0.3954	9.6849
1.1515	0.6903	9.6293
1.0821	0.5468	9.7292
1.2544	0.4899	9.6981
0.9027	0.5886	9.7555
0.8530	0.5713	9.7028
0.9870	0.4552	9.8733
0.6072	0.8656	9.6807
0.8159	0.5815	9.5838
0.7717	0.5294	9.5814
0.5821	1.0917	9.5677
0.4146	0.6562	9.4408
0.9170	0.4804	9.6299
0.6538	0.8656	9.5671
0.6287	0.7101	9.3284
1.4429	0.4642	9.6807
0.9051	0.8650	9.4660
0.9912	0.6885	9.0418
1.4381	0.5677	9.8010
1.2024	0.7968	9.6299
0.6963	0.6353	9.3242
1.2718	0.8459	9.6586
1.0881	0.7489	9.5772
0.4391	0.7436	9.8213
1.1904	0.6999	9.6598
1.0193	0.9254	9.8069
0.3876	0.7723	9.6556
1.0445	0.7920	9.5054
0.8554	0.7352	9.4905
0.2321	0.5497	9.5862
0.7860	0.6090	9.2751
1.0391	0.6036	9.3810
0.9111	0.6550	9.5467
1.1671	0.5246	9.7411
1.5015	0.5384	9.6131
1.5589	0.5115	9.8410
1.1432	0.6299	9.7986
1.1599	0.3482	9.5844
1.0923	0.4433	10.1665
0.7968	0.7663	9.7011
0.9075	0.4899	9.2949
0.9517	0.6317	9.5581
0.8554	0.8782	9.3242
0.8889	1.1055	9.3248
0.7250	0.8674	9.6448
0.8345	1.0738	9.7022
0.6401	0.9009	9.4546
0.6622	0.6921	9.6352
0.7047	0.7944	9.6257
0.7346	0.8441	9.3116
0.8853	0.4552	9.5030
0.7627	0.7232	9.5102
0.9948	0.8064	9.2703
1.1330	0.4534	9.5844
0.8321	0.8369	9.4827
1.0128	0.6873	9.5001
1.1689	0.5671	9.7447
0.6664	0.8357	9.4193
0.9499	0.4947	9.3948
1.0887	0.5689	9.6628
0.6132	0.8596	9.5252
0.8243	0.7513	9.2458
1.1641	0.5832	9.9517
0.4319	0.8447	9.4869
0.8315	0.6951	9.2608
1.3460	0.4271	10.1479
0.7340	0.6628	9.7567
1.0098	0.7316	9.3212
1.2084	0.5390	9.5294
0.9129	0.9069	9.4091
0.7735	0.8471	9.5407
1.3005	0.4780	10.0342
1.0504	0.9583	10.0277
0.7645	1.0923	9.4133
0.9105	0.9607	9.5180
0.6000	0.8494	9.9421
0.5186	0.8459	9.6323
0.8112	0.5031	9.6358
0.7101	0.5587	9.4103
0.7513	0.8136	9.1334
1.1456	0.4116	9.3026
0.8877	0.4116	9.4265
1.0588	0.4738	9.4301
1.2837	-0.0455	9.4163
1.1408	0.3565	9.3379
1.0157	0.6670	9.0311
1.4578	0.4708	9.5605
1.2502	0.6861	9.4929
0.9649	0.7567	9.1591
1.3902	0.5886	9.9726
0.9105	0.3864	9.6006
0.4905	1.0475	9.3780
0.5904	0.7836	9.5677
0.6377	0.7986	9.7016
0.1585	0.9290	9.7938
0.8351	0.7059	9.9212
0.8321	0.7226	10.1443
0.4313	0.8213	9.2368
0.8680	0.7747	9.3236
1.0516	0.5414	9.5760
0.6855	0.7442	9.1393
1.1982	0.5755	9.3284
1.4626	0.2943	9.3062
1.0768	1.0068	9.3529
1.3208	0.3930	9.3661
1.3717	0.4403	9.4301
0.9218	0.7591	9.6394
1.0247	0.2740	9.6723
1.0140	0.3924	9.6795
0.5581	0.8267	9.4217
1.1031	0.8357	9.7489
0.8943	0.8883	9.7070
0.4331	1.4967	9.5659
1.0110	1.1258	9.6616
0.8201	0.9505	9.6329
0.3039	1.2915	9.4528
0.7884	1.0307	9.4995
1.0516	0.4696	9.6323
0.6831	0.7902	9.7028
1.0241	0.4768	9.6394
1.3765	0.0754	9.9726
1.0492	0.2889	9.5635
0.9745	0.2530	9.3116
1.3011	0.3164	9.4719
1.0157	0.3840	9.2656
0.9422	0.7143	9.2985
1.2024	0.6640	9.7328
1.2048	0.5713	9.3547
0.4804	0.9296	9.6508
0.8752	0.9003	9.4911
0.6628	0.7819	9.7046
0.4516	1.1737	10.0851
0.4780	1.2185	9.7986
0.4032	1.0110	9.8494
0.7268	0.8219	10.0779
0.4648	0.9266	9.8159
0.7352	0.6251	9.4337
0.8806	0.5515	9.6263
0.8841	0.8548	9.3493
0.6879	0.7149	8.8480
1.2395	0.5527	9.4684
1.2281	0.5348	9.6245
1.3071	0.6616	8.8827
1.3322	0.5629	9.2805
1.4937	0.5031	9.6825
1.2927	0.6221	9.6741
1.3466	0.4804	9.8249
1.1797	0.6646	9.6436
1.0098	0.5168	9.2249
0.8447	0.1992	9.5168
0.8859	0.8273	9.7531
0.7047	0.8010	8.9240
0.9326	0.4588	9.5467
0.7364	0.8542	9.3702
0.6640	1.2132	9.0813
0.8889	0.6173	9.6221
0.7579	0.7400	9.5180
0.5139	1.0271	9.4271
1.0295	0.1382	9.7872
0.9691	0.8171	9.6478
0.4014	1.2305	9.3128
1.1563	0.9410	9.5521
1.0205	0.8776	10.1300
0.4570	1.1503	9.3326
0.8722	0.7472	9.3152
1.0654	0.4642	9.5922
0.3069	1.0080	9.2602
0.7125	0.7316	9.1034
1.3489	0.0610	9.8751
0.7789	0.4373	9.7034
0.7501	0.1346	9.3894
1.2843	0.0138	9.6490
0.8614	0.3051	9.3110
0.9464	0.1741	9.4917
1.0439	0.3655	9.6759
1.1133	0.7801	9.4695
1.2413	0.6269	9.7866
1.4435	0.8871	9.9475
1.2461	1.1204	9.6843
1.2066	0.9936	9.5132
1.3986	0.9200	9.6849
0.8088	1.2060	9.7262
0.5474	0.9111	9.7567
1.0295	0.7346	9.9589
0.5204	0.6688	9.8446
-0.0263	0.8058	9.3798
0.9541	0.3912	9.5246
0.6688	0.4140	9.5114
0.3900	0.7352	9.1830
1.1940	0.7005	9.4265
1.3567	0.3242	9.4474
0.9547	0.4768	9.4378
1.4106	0.8877	9.5318
1.6935	0.1364	9.5347
1.4124	0.2524	9.5964
1.0301	0.6269	9.5084
1.2993	0.3308	9.2656
0.9338	0.0473	9.5587
0.5862	0.8818	9.6993
0.5097	0.9781	9.4797
0.6305	0.8883	9.8763
0.3996	1.1509	9.8733
0.4905	1.2084	9.3708
0.4612	1.1414	9.8063
0.6024	1.3537	9.5509
0.7759	0.9499	9.7962
0.6909	0.9272	9.8237
0.5557	0.8991	9.7094
1.0199	0.3978	10.0097
0.9691	0.3523	9.6532
0.6742	0.6395	9.4594
1.0863	0.4869	9.1543
1.1701	0.0024	9.7040
0.8345	0.2949	9.4366
1.3370	0.8207	9.1549
1.7079	0.0012	9.2177
1.4572	0.6604	9.2398
1.4560	0.8483	9.1890
1.8969	0.7029	9.6879
1.6666	0.3266	9.8949
0.7543	0.7669	9.7399
1.2341	0.7896	9.4426
0.6993	0.5025	9.7196
0.4762	0.6814	9.4247
0.4235	1.3753	9.5060
0.6802	0.9930	9.9379
0.5533	0.7890	9.8811
0.4086	1.6062	9.7417
0.5521	1.4417	9.2530
0.5958	0.9440	9.5282
0.5773	1.0786	9.8691
0.6395	0.9015	10.0510
0.9745	0.4618	10.0229
1.1210	0.4768	10.0049
1.1294	0.4181	9.9320
0.9565	0.2530	9.4797
0.9434	0.6855	9.7304
1.1767	0.4839	9.3559
0.7795	0.2363	9.4139
0.9559	0.7316	9.1453
1.0367	0.8835	9.1489
1.4291	0.5252	9.4319
1.0923	0.5545	9.5862
1.2736	0.4708	9.2398
1.5021	-0.1501	9.6801
0.9021	0.3996	9.3744
0.5198	0.6951	9.2291
1.1396	0.7214	9.7615
0.7944	0.5605	9.9248
0.5635	1.0199	9.4432
1.1964	1.2371	9.4887
1.1348	0.8010	9.5569
0.7819	1.0869	9.2680
1.1288	1.5667	8.9288
1.0175	0.9846	9.8398
1.1330	0.4875	9.8745
0.4869	0.9009	9.6574
1.0983	0.6383	9.7519
0.7466	0.0383	9.5527
0.3978	0.8764	9.4522
0.8130	0.7466	8.8061
0.8698	0.3075	9.2201
0.8303	0.8231	9.6687
1.1228	1.0187	9.0604
1.1623	0.6592	9.6239
1.0361	0.6209	9.3373
0.7537	0.8076	9.6759
1.0726	0.5880	9.6317
0.7657	0.4116	9.7752
0.9972	0.2949	9.9517
0.8752	0.6287	9.9834
0.8351	0.4923	9.6352
0.7047	0.8788	9.9714
1.0301	1.1539	9.3984
0.7603	1.0439	9.4145
0.8530	0.9583	9.5533
1.0008	1.0929	9.3828
1.2999	0.8082	9.5288
0.8417	0.3721	9.7226
0.9565	0.5294	9.4241
0.9571	0.0736	9.6281
0.6700	-0.0891	9.4959
0.6000	0.4313	9.4337
1.0481	0.3936	9.3302
0.9601	0.2291	9.5234
0.8800	0.7795	9.5054
1.1533	1.2945	9.3074
1.4453	0.6401	9.3278
1.2843	0.7430	9.5330
1.1527	1.5248	9.2757
1.2209	0.8088	9.6598
1.0923	0.2853	9.5826
0.4606	1.0092	9.5042
0.6969	1.0223	9.2518
0.6999	0.4457	9.8261
0.4128	0.4899	9.9954
0.6550	0.9326	9.8255
0.6772	0.8865	9.9786
0.6951	0.3176	9.7866
0.9260	1.2688	9.6705
1.1288	0.9123	9.2410
1.2305	0.3882	9.8590
1.3023	0.5683	9.9092
1.2215	1.0427	9.5365
1.5302	0.5103	9.3852
1.1312	0.6012	9.7543
0.9535	0.7268	9.4462
0.9308	0.3254	9.5371
0.7095	0.2423	9.5156
0.6006	0.5462	9.5623
0.8506	0.3912	9.4187
0.7310	0.5133	9.5796
0.8189	1.0857	9.3577
1.1916	1.0128	9.4390
1.1647	0.9924	9.6012
0.8034	0.9117	9.5461
1.1139	1.2861	9.6711
1.0498	0.6317	9.9026
0.6449	0.4211	9.9373
0.5976	0.7454	10.0121
0.6221	0.6885	9.8823
0.6251	-0.0879	9.9272
0.7866	0.7178	9.6735
0.8471	0.9487	9.5593
1.1402	0.3164	9.6831
1.1234	0.3852	9.5802
1.0421	1.1832	9.3355
1.3418	0.5527	9.3726
1.3693	0.2889	9.4905
0.8052	0.8901	9.5048
1.2484	0.9027	9.2123
0.9577	0.5910	9.4953
0.7537	0.4905	9.7310
0.9075	0.9619	9.8021
0.8883	0.6969	9.6999
0.7214	0.5982	9.8542
0.9733	0.8010	9.8159
1.0851	0.7693	9.7130
1.0134	0.6455	9.8482
1.0881	0.6682	9.9349
0.9499	0.8997	9.6107
0.9565	0.4612	9.7393
0.5701	0.5587	9.7011
0.9386	0.6718	9.4019
0.8124	0.5210	9.7136
0.5545	0.4845	9.5180
0.7364	0.9332	9.4271
0.9840	0.8441	9.3391
0.9158	0.6766	9.6723
0.6383	0.7202	9.6203
0.9284	1.0857	9.7663
1.1300	0.8333	9.4582
0.9721	0.4965	10.0390
1.1186	1.1671	9.5970
0.9643	0.9482	9.8057
1.1103	0.1741	9.5814
0.7968	0.1555	9.6245
0.8506	0.5372	9.3673
0.6945	0.2052	9.4378
0.7382	0.1609	9.5132
0.6508	0.8028	9.4384
0.9063	0.6371	9.4301
0.9936	0.5509	9.8207
0.8483	0.6969	9.9906
1.1671	1.1844	9.5712
1.0977	1.2347	9.4654
0.9081	0.5456	10.0163
1.1605	0.8165	10.1168
0.9978	1.0469	9.7310
0.7980	0.6885	9.7716
0.8602	0.5276	9.9457
0.6395	0.8829	9.6568
0.7071	0.5617	9.4402
0.7376	0.4744	9.7459
1.1725	0.5001	9.2309
1.1814	0.6808	9.3996
1.1803	0.7304	9.3284
1.3316	0.5055	9.6041
1.3292	0.4804	9.5252
1.0205	0.6371	9.5862
0.7795	0.3882	9.5509
1.0163	0.6221	9.7908
0.7047	0.8841	9.2967
0.5216	0.5007	9.8877
0.7125	0.5354	9.6095
0.5503	1.0217	9.5515
0.8734	0.6401	9.7585
0.9775	0.7926	9.8386
1.0241	1.1635	9.7202
0.9697	0.9577	9.4707
1.1803	0.6748	9.8620
1.2167	0.4875	9.7196
1.0636	0.7382	9.6346
1.0690	0.4588	9.3798
1.2126	0.2542	9.7716
1.0636	0.7131	9.3284
0.9224	1.0678	9.2004
1.1360	0.6042	9.7549
1.1252	0.3673	9.9080
0.7322	1.0451	9.3589
0.7436	0.9751	9.3493
1.1743	0.2818	9.6538
0.8297	0.8136	9.6041
0.7262	0.8626	9.5096
0.8459	0.5761	9.8135
0.9105	0.3757	9.7328
0.6293	0.8142	9.5024
0.8076	0.8889	9.3421
0.9404	0.7286	9.8291
0.8177	0.6419	9.5503
0.9769	1.1426	9.7016
1.1420	0.8142	9.3774
0.9182	0.3194	9.6119
0.9212	0.9045	9.6687
0.8536	0.8782	9.4737
0.8339	0.5222	9.5940
0.5856	0.7095	9.3684
0.8883	0.7424	9.4043
1.0504	0.5115	9.3499
0.8321	0.7747	9.4749
1.0959	0.8327	9.7471
1.2479	0.4331	9.7016
1.1964	0.6592	9.1986
0.8339	0.6736	9.3732
1.1779	0.4528	9.3583
0.9248	0.3996	9.6484
0.8207	0.2692	9.6299
1.0504	0.7226	9.5766
1.2126	0.6323	9.4839
0.9811	0.3823	9.8835
1.1910	0.8447	9.6879
0.8973	0.9272	10.0378
0.7753	0.3613	9.7561
0.8626	0.4403	9.7028
0.9356	1.0002	9.5270
0.6407	0.9864	9.4725
1.0576	0.7777	9.7776
0.9290	0.8429	10.0528
0.8429	1.0917	9.4468
0.8231	0.8148	9.4893
1.0211	0.5031	9.5467
1.1575	0.7980	9.5659
0.8602	0.9655	9.0843
1.2754	0.4905	9.3242
1.2724	0.1902	9.5724
0.9900	0.7753	9.2219
0.7501	0.6921	9.2339
1.1952	0.2853	9.7328
0.8554	0.7053	9.6131
0.7424	1.0385	9.2010
1.1150	0.7190	9.9194
0.9709	0.5527	10.0971
0.8255	0.6485	10.0187
0.8818	0.8859	9.5665
0.7525	0.8088	9.7962
0.8159	0.5438	9.4516
0.7460	0.7908	9.3015
0.9290	0.7896	9.5844
0.6778	0.5348	9.7902
0.9822	0.8883	9.4899
0.9948	1.0116	9.4151
1.1497	0.4839	9.4085
0.9715	0.6467	9.4857
0.9452	0.4576	9.3876
1.2233	0.2710	9.5222
0.6903	0.5665	9.1932
1.0289	0.6179	9.3553
1.1186	0.4678	9.4785
0.9733	0.6849	9.3278
0.8195	0.6754	9.4008
1.1432	0.8608	9.4953
0.7675	0.8668	9.6759
0.7687	0.7884	9.5401
1.0116	1.0486	10.0630
0.8500	1.0827	9.8231
0.7920	0.4253	9.8261
1.0319	0.8052	9.8404
0.7675	1.2149	9.6681
0.9105	0.6126	9.7226
1.0157	0.5480	10.0833
0.9535	0.7878	9.6071
1.0056	0.7663	9.2769
1.0104	0.5527	9.5455
1.2066	0.3888	9.5359
0.9422	0.6167	9.3870
1.1348	0.5964	9.2033
1.3675	0.1699	9.5024
1.0594	0.4582	9.4983
0.7292	1.0343	9.1944
0.9434	0.5480	9.6221
0.9571	0.2082	9.6831
0.6347	1.0086	9.2111
0.8692	0.9117	9.4570
1.1557	0.7059	9.4624
0.7125	1.0277	9.4947
0.8871	1.2305	9.4085
0.9284	0.9482	9.7842
0.7370	0.7160	9.7615
0.6658	0.8058	9.6795
0.8094	0.7735	9.4307
0.9135	0.7801	9.4378
0.8734	0.2656	9.7028
1.2329	0.4241	9.9158
0.9547	0.6156	9.5042
0.8142	0.2818	9.6335
1.1785	0.5402	9.8183
0.9553	0.7795	9.6017
0.7029	0.7364	9.8380
1.0672	0.6532	9.7842
1.1970	0.7382	9.7357
1.0355	0.9021	9.4893
0.7986	0.9763	9.6664
0.9595	0.7280	9.6544
0.7561	0.7561	9.7022
0.5312	0.8375	9.2512
0.7795	0.6831	9.4049
0.9763	0.4600	9.3864
0.7262	0.8315	9.3086
0.9003	0.7501	9.2835
1.1426	0.4959	9.6634
0.8447	0.7938	9.6430
0.6981	0.5659	9.5252
0.9428	0.4546	9.6753
0.8207	0.7208	9.4468
0.8560	0.6802	9.4235
1.2395	0.7478	9.7471
0.8901	0.6628	9.6239
0.9769	0.7166	9.6466
0.9972	0.6173	9.8303
0.9906	0.7878	9.6179
0.6700	0.9075	9.5790
0.9858	1.1246	9.5347
1.0899	0.6592	9.6879
0.8106	0.5180	9.6412
0.8082	0.9242	9.5180
0.8895	0.6323	9.4402
0.8016	0.2303	9.5001
0.7125	0.5222	9.3098
0.8758	0.6293	9.6257
1.0564	0.1705	9.3230
0.9476	0.3529	9.4941
1.0654	0.7974	9.5234
1.1629	0.8901	9.3756
1.0558	0.6855	9.4187
1.1910	0.6305	9.8584
0.9135	0.9607	9.7639
0.8118	0.9404	9.4378
0.7472	0.4690	9.9003
0.7166	0.8148	9.7716
0.5300	0.9775	9.4905
0.6975	0.3517	9.8404
0.7824	0.2895	10.1503
0.7286	0.9960	9.2524
0.7113	1.0792	9.4684
1.3053	0.8261	9.5180
1.2413	0.6413	9.5336
1.1826	0.7908	9.2871
1.3878	0.5755	9.4271
1.1330	0.1220	9.2153
1.0319	0.4331	9.4893
1.1174	0.6467	9.3726
1.1545	0.3147	9.2123
0.6855	-0.1908	9.6191
0.8847	0.6520	9.6191
0.5725	0.6790	9.4546
0.7783	0.2991	9.5593
0.8740	0.9787	9.9732
0.9188	0.9458	9.4522
0.8901	0.9003	9.9248
0.8387	0.8219	9.9236
0.8608	1.3621	9.9092
0.6120	1.3148	9.4396
0.7442	0.9260	9.6454
0.9015	0.6724	9.9846
0.7729	0.8650	9.5078
0.7083	0.8064	9.5042
1.0510	0.5222	9.5066
0.8255	0.2949	9.3690
0.7125	0.5617	8.9671
0.8285	0.1759	9.5282
1.0128	-0.1442	9.5455
1.0911	0.7980	9.4971
1.3507	0.6957	9.4869
1.5679	0.7561	9.5437
1.4638	0.9493	9.4337
1.3352	0.9817	9.6335
1.1091	1.0104	9.5545
0.8488	0.8423	9.3966
0.9470	1.0062	9.5724
0.9966	0.9775	9.6101
0.7693	0.9972	9.6580
0.9332	0.7400	9.5700
0.6939	0.5587	9.5994
0.3852	0.6419	9.2925
0.3488	0.4169	9.8333
0.9332	0.4522	9.6544
1.1988	0.6664	9.6161
1.2694	0.3523	9.5210
1.6798	0.7866	9.6436
1.4393	0.7208	9.7160
1.1228	0.5563	9.6951
1.0696	0.9003	9.8350
0.8369	0.8991	9.5647
0.7669	0.3619	10.0061
0.9176	0.4558	9.9003
0.7531	0.9517	9.7375
0.7633	0.6317	9.3032
0.6837	0.7507	9.7651
0.4493	0.9864	9.5832
0.5091	0.9350	9.6185
0.9230	0.4361	9.8871
1.0259	0.6401	9.7118
0.9218	1.0576	9.2147
1.4847	1.0486	9.3338
1.4327	0.5474	9.6484
1.0666	0.5892	9.0963
0.9990	0.9123	9.2602
1.0762	0.2566	9.3158
1.0654	0.3852	9.6478
0.9733	1.0134	8.8737
1.2885	0.9511	9.6640
1.3759	-0.1274	9.3643
0.7663	0.7603	9.5030
0.9093	1.2311	9.3846
1.0654	0.5372	9.7956
0.8907	0.7484	9.8584
0.6173	1.0666	9.5700
1.0140	0.9164	9.4420
0.9446	0.5731	9.2291
0.7388	0.9547	9.6526
0.9751	1.2975	9.3200
0.8231	0.9858	9.6047
0.9942	0.3176	10.0163
1.0032	0.8471	10.1832
0.8841	1.0600	9.2638
0.9296	0.1819	9.8590
0.9487	0.4606	9.8177
0.8142	0.9278	9.0514
0.7436	0.7848	9.9248
1.1952	0.1836	9.6693
0.7711	0.9918	9.6771
0.8058	1.0247	9.4043
0.9123	0.8124	9.8967
0.8638	0.3320	9.6783
0.5641	0.8955	9.4600
0.9918	0.7436	9.3445
0.9840	0.3924	9.5754
1.0253	0.5067	9.3499
1.0373	0.8022	9.3732
1.1665	0.5629	9.4396
1.0672	0.3069	9.4731
1.0301	0.8812	9.3864
1.1162	0.9290	9.3445
1.0385	0.3775	9.5389
1.2622	0.6030	9.6376
1.0624	0.9446	9.6382
1.0475	0.5803	9.3768
0.7741	0.4941	9.7202
0.6837	0.5587	9.7136
0.6030	0.5952	9.3260
0.5186	0.6126	9.6496
0.9057	0.5061	9.6891
0.9081	0.7328	9.5599
0.8231	1.0947	9.2530
0.9595	0.7101	9.7100
1.2802	0.5198	9.7274
0.9906	1.1139	9.5240
1.1109	0.6843	9.4809
1.2173	0.5892	9.7950
0.8859	0.7501	9.4163
0.8082	0.5414	9.5090
0.9523	0.6203	9.7375
0.9278	0.6592	9.4169
0.8064	0.7113	9.8117
1.0092	0.8201	9.5306
0.9105	0.7932	9.6346
0.9565	0.5324	9.6113
0.8536	0.6939	9.6358
0.7836	0.5898	9.2434
0.6066	0.5294	9.7232
0.8770	0.6317	9.7040
0.9529	0.8219	9.7788
0.6748	0.6939	9.6089
1.1025	0.8614	9.6765
0.8584	0.9547	9.7369
0.7950	0.7753	9.5383
0.9458	0.9135	9.7429
1.0606	0.6784	9.0616
0.9170	0.7693	9.6831
1.2036	0.6413	9.5001
1.1557	0.9021	9.7764
1.0451	0.4134	9.7447
1.1252	0.5204	9.5174
0.9123	0.4397	9.7118
0.7280	0.4259	9.3272
0.9045	0.2764	9.5527
1.0331	0.4905	9.4115
0.8752	0.6724	9.3702
1.1761	0.9027	9.3894
1.1007	0.9404	9.7136
0.7717	0.8237	9.1932
0.7125	1.3830	9.6029
0.8925	0.8261	9.4402
0.8710	0.6556	9.6113
0.6251	0.8536	9.4905
1.1228	0.6311	9.4965
1.1503	0.2219	9.4791
0.9709	0.4498	9.1651
1.0612	0.6120	9.6610
1.1234	0.3434	9.1573
0.8662	0.5198	9.5748
1.0558	0.7914	9.2769
1.0469	0.9864	9.3086
1.1683	0.8261	9.3379
1.2778	0.5497	9.3888
1.1168	0.9493	9.4989
1.1402	0.8590	9.0472
1.3256	0.3942	9.4755
1.3125	0.7071	9.5862
0.9535	1.1749	9.1687
1.3322	0.9003	9.3589
1.4213	0.5420	9.6598
1.2191	1.0558	9.0113
1.1336	1.2461	9.0801
1.6552	0.5121	9.2979
1.1916	0.7035	9.2799
0.9637	1.0439	9.1633
1.4566	0.8608	9.4073
1.3113	0.6030	9.6687
0.9960	0.8231	9.7136
1.0702	1.2006	9.6293
0.9224	0.8829	9.4319
0.6508	0.2548	9.9266
1.0080	0.9236	9.6628
0.8142	1.0283	9.6496
0.9135	0.5659	9.6251
1.1928	0.7364	10.2699
0.9541	0.9021	9.7950
0.7412	1.0792	9.7555
1.0582	0.4588	10.0079
0.8614	0.7693	9.8189
0.6544	0.7304	9.4995
0.8865	0.4552	9.7758
0.8429	0.2219	9.9505
0.9667	0.5055	9.4540
0.8303	0.8004	9.3738
1.1438	0.6096	9.4504
0.9565	0.4558	9.4031
0.8261	1.0259	9.5928
0.9374	0.9075	9.5060
0.9828	0.4642	9.6705
0.9141	0.9123	9.7292
0.9870	0.9643	9.7944
1.0385	0.7400	9.4612
0.7166	0.6879	9.7567
0.7101	0.7555	9.5294
0.5085	0.6257	9.7908
0.4845	0.2877	9.6652
1.0684	0.5121	9.6939
1.0768	0.6413	9.2883
1.0367	0.7220	9.1507
1.3657	0.5976	9.3505
1.2879	0.5366	9.3146
0.8752	1.0863	9.5060
0.9942	0.7358	9.4773
1.0463	0.6616	9.7968
0.8237	0.9811	9.2967
0.8608	0.8859	9.5222
1.1049	0.6574	9.8608
0.5527	1.0953	9.4259
0.4409	0.8285	9.5114
0.7986	0.6987	9.7286
0.4211	0.9541	9.5850
0.8237	0.7017	9.3493
1.0881	0.6323	9.9020
0.9320	0.6945	9.1058
0.9834	0.9374	9.4121
1.2425	0.5025	9.3990
1.1551	0.6580	9.5425
0.8297	0.7250	9.6538
1.1910	0.7908	9.6508
1.0857	0.6156	9.7106
0.8943	0.6802	9.5838
1.0564	0.9691	9.6382
1.1115	0.8249	9.2751
0.8333	0.4863	9.8554
1.0002	1.0367	9.6341
0.9063	1.0026	9.5850
0.8435	0.6257	9.5126
0.8979	0.6024	9.5204
0.7705	0.6048	9.6358
0.8094	0.5432	9.5700
0.9117	0.2154	9.8967
1.0660	0.2943	9.8626
0.9308	0.4917	9.6681
1.0187	0.4959	9.3732
1.0887	0.4002	9.6161
0.9057	0.6000	9.4301
0.7244	1.0899	9.4163
0.8949	0.8818	9.5013
1.0175	0.4947	9.4468
0.5958	1.3639	9.4875
1.0128	1.1988	9.4570
1.0409	0.5647	9.7824
0.8548	0.6496	9.6448
0.5832	0.8943	9.7292
0.9625	0.7316	9.1621
0.6167	0.3912	9.4283
0.8022	0.8722	9.6065
1.1731	0.9350	9.5838
0.9834	0.7789	9.5072
1.0618	0.5456	9.2907
1.1342	0.8429	9.5868
1.0415	1.0457	8.9736
0.9685	0.3242	9.3224
1.3675	0.2734	9.9170
1.0157	0.8530	9.1340
0.9894	0.6449	9.4384
1.4327	0.3159	9.7453
1.1450	0.9123	9.5186
0.8309	1.0140	9.3086
1.2132	0.4636	9.6622
1.2784	0.3440	9.5246
0.8195	0.6443	9.6969
1.0163	0.9679	9.3810
1.2072	0.3482	9.7597
0.9476	0.5946	9.5353
0.6742	1.2120	9.3373
0.9637	0.6981	9.4289
0.6873	0.5067	10.0689
0.7460	0.8494	9.8901
0.8560	0.7795	9.8057
0.9643	0.5503	9.4737
0.9129	0.5761	9.3056
1.0486	0.8518	9.5144
0.9123	0.6150	9.2662
0.7657	0.7765	9.8697
0.9972	0.9254	9.5862
0.8979	0.9314	9.6699
0.9338	0.8171	9.5407
0.9206	0.7501	9.8542
1.0086	0.5551	9.5575
0.9930	0.5958	9.5419
0.8895	0.5336	9.8231
1.0804	0.7836	9.6855
0.9619	0.6353	9.3840
1.2688	0.5671	9.5994
1.0594	0.7376	9.7280
0.9446	0.8536	9.1471
0.9093	0.5952	9.6484
1.0397	0.3924	9.4450
0.6239	1.1826	9.4522
0.8453	0.8506	9.5240
1.1420	0.5623	9.9038
0.7998	0.7729	9.7722
0.8082	0.8680	9.5240
1.0750	0.6072	9.6897
0.9775	0.4905	9.2745
0.8195	0.6855	9.5389
1.2060	1.0762	9.3391
1.2658	0.6461	9.5288
1.0295	0.6419	9.9403
1.0331	0.9625	9.8638
0.9870	0.7268	9.7106
0.9924	0.1645	9.8195
1.0313	0.5826	9.9158
0.9511	0.8177	9.3200
1.0289	0.2806	9.7501
1.1246	0.4008	9.9152
1.0241	0.8800	9.7728
1.1276	0.6215	9.1136
1.2562	0.5139	9.6101
1.4321	0.4612	9.2446
1.1001	1.0080	9.1106
1.1880	0.8907	9.6418
1.5493	0.2955	9.7447
1.0588	0.7346	9.4492
1.1797	0.8297	9.3667
1.2335	0.6688	9.7322
0.9691	0.6568	9.6155
0.8022	0.9649	9.6687
1.2000	0.8106	9.4145
0.9254	0.3332	9.4570
0.7932	0.7974	9.2440
0.9996	1.0654	9.3732
0.9870	0.3655	9.1585
0.7220	0.7478	9.6281
0.9763	0.6556	9.2536
1.1174	0.3954	9.6885
0.8746	0.6335	9.6885
0.8070	0.9511	9.4743
1.1820	0.5366	9.5090
1.0498	0.6413	9.4809
0.7579	0.8518	9.7842
1.0684	0.9822	9.6993
0.6646	0.7920	9.7722
0.4935	0.4606	9.9750
0.5946	1.1013	9.8979
0.5623	1.0971	9.2739
0.4654	0.5545	9.8303
0.8148	0.7741	9.7657
0.4708	1.2772	9.5563
0.5109	0.5186	9.9996
1.0307	0.5677	9.9296
0.7065	1.0319	9.7154
0.8159	0.9380	9.4115
1.0343	0.3296	10.0055
1.0319	0.1992	9.5653
0.8010	0.5539	9.5342
1.0062	0.5162	9.4570
1.1809	0.2692	9.5401
0.7089	0.6179	9.5611
1.0349	1.0080	9.2189
1.1892	0.4810	9.9014
1.0307	0.5294	9.7022
1.1462	0.9763	9.2817
1.2496	0.9398	9.4456
1.2449	0.5671	9.5013
1.2610	0.7567	9.6825
1.1880	0.9619	9.5635
1.1743	0.4648	9.0867
0.7741	0.6772	9.7094
1.0259	0.8094	9.1561
1.0086	0.6054	9.1034
0.9003	0.4678	9.2979
1.3442	0.7651	9.2518
1.2861	0.4989	9.2362
1.3154	0.5198	9.3972
1.2855	0.5527	9.7710
1.1844	0.6610	9.6598
0.9063	0.4857	9.6765
0.8602	0.3547	9.7722
0.6030	0.9470	9.8356
0.3571	1.0540	9.3996
0.4469	0.7436	9.8464
0.6975	0.8028	9.8273
0.2512	1.5344	9.1507
0.5252	1.1527	9.5736
0.9033	0.5731	9.9990
0.7304	1.3591	9.6137
0.8728	1.0050	9.4767
1.2604	0.3966	9.7106
1.1133	0.3823	9.3373
0.8979	0.5671	9.1866
1.2718	0.5946	9.3224
1.1892	0.0837	9.5401
1.0355	0.2596	9.3589
0.9613	1.0002	9.5437
1.1174	0.4798	9.4594
0.8931	0.4427	10.0743
0.9135	1.0696	9.6059
1.0086	1.0654	9.3840
0.9505	0.3888	9.8925
0.9984	0.8776	9.5898
0.6772	0.9380	9.6496
0.6126	0.4881	9.4869
0.4672	0.4654	10.0791
0.5372	0.7328	9.6125
0.6395	0.3781	9.4271
0.9051	0.3499	9.5294
1.0492	0.9320	9.6508
1.1737	0.7232	9.3673
1.4596	0.7089	9.6801
1.3400	0.8961	9.6012
1.2993	1.1737	9.2027
1.2526	0.8004	9.5060
1.4016	0.3218	9.8596
0.9948	0.7400	9.7872
0.8889	0.9290	9.2386
0.9302	0.2148	9.6873
0.6993	0.3266	9.4295
0.3302	1.0002	9.1866
0.6221	0.8740	9.4331
0.8901	0.3350	9.8889
0.7968	1.0528	9.5581
0.8213	1.1749	9.3176
1.1497	0.6275	9.8087
1.1031	0.4361	9.6472
1.0074	0.7860	9.6544
1.2179	0.7436	9.3541
1.1820	0.4152	9.4743
1.0391	0.5910	9.1112
1.0540	1.1462	9.5018
1.1874	0.7729	9.5509
0.9051	0.4947	9.6999
0.9721	1.0151	9.6771
1.0630	0.9063	9.3918
1.0564	0.5761	9.5461
0.9188	0.6808	9.2961
0.8512	0.7029	9.4719
0.7543	0.4869	9.3690
0.5174	0.6305	9.6903
0.9631	0.6891	9.6227
0.9745	0.8351	9.6526
1.1294	0.6562	9.1244
1.1892	0.9398	9.5377
1.4004	0.9577	9.4205
1.3944	0.9003	9.4917
1.0319	0.6293	9.6999
1.2425	0.8459	9.5066
1.1312	0.5743	9.5240
1.0331	0.2453	9.5724
0.9607	0.8764	9.7633
0.8632	0.8506	9.4014
0.9476	0.1388	9.6610
0.9954	0.3697	9.7040
1.0140	0.8423	9.5922
1.1318	0.6712	9.3403
1.2066	0.5916	9.4809
1.1593	0.9458	9.6029
1.1904	1.0283	9.5413
1.0732	0.8016	9.7603
1.2490	0.4265	9.8434
0.9601	0.8847	9.7800
0.9188	1.0038	9.1609
0.8632	0.3775	9.6753
1.0463	0.5025	9.8566
0.9799	0.9643	9.3918
0.9230	0.8530	9.3619
1.3023	0.4947	9.5198
1.1127	0.8034	9.5730
0.9458	0.9942	9.2279
1.0313	0.7119	9.8285
1.1725	0.3272	9.7567
1.0002	0.6042	9.5796
1.0750	0.7053	9.1441
1.1671	0.4098	9.6628
1.0241	0.3434	9.2853
0.8165	0.9870	9.2225
0.9003	0.8644	9.5527
1.0020	0.6341	9.7322
0.8859	1.1462	9.6323
1.1198	1.2078	9.4085
1.1444	0.7537	9.7028
1.0283	0.7824	9.4552
0.7298	0.6550	9.6891
0.8764	0.4708	9.6897
0.6748	0.5689	9.8512
0.7196	0.3290	9.4851
1.0020	0.5276	9.7453
1.1354	0.5240	9.4420
0.9015	0.7364	9.4731
1.2610	1.0540	9.6113
1.3615	0.7860	9.6299
1.0983	0.6969	9.5659
1.1623	1.1276	9.3756
1.1868	0.7250	9.3577
1.0552	0.4433	9.3726
0.7238	0.8189	9.4235
0.7681	0.9404	9.4558
0.9410	0.2871	9.7184
0.9344	0.3296	9.3415
0.8548	0.8584	9.4636
1.1366	1.0271	9.4594
1.2616	0.7005	9.3834
1.1288	0.7872	9.9493
1.3597	1.0080	9.4247
1.1420	0.7178	9.5694
1.2933	0.0772	9.4223
1.0313	0.7507	9.8614
1.0086	0.7705	9.2608
0.8680	0.4235	9.5712
0.8183	0.3805	9.8674
0.9715	0.8471	9.7124
0.9290	0.7621	9.4959
1.0690	0.5491	9.4666
1.1324	0.8512	9.8267
1.0534	0.9338	9.2662
0.9033	0.9960	9.6532
1.0612	0.4810	9.7645
0.9505	0.5503	9.8883
0.9224	0.6909	9.3553
0.9272	0.4439	9.6975
1.1557	0.4343	9.8727
1.1928	0.7597	9.3990
1.0827	0.6502	9.5013
1.4752	0.6299	9.5467
1.2999	0.7633	9.4235
1.1258	0.7836	9.2093
1.1168	0.7986	9.6526
1.1192	0.6814	9.5677
0.9111	0.8231	9.5001
1.0385	0.7645	9.4600
1.0463	0.4851	9.6867
0.9392	0.7059	9.5635
0.9069	0.8429	9.3230
0.9643	0.6837	9.9224
0.9152	0.6742	9.9415
1.0265	1.0983	9.4199
1.3131	0.5629	9.5204
1.3196	0.5037	9.7034
1.1324	0.9715	9.2123
1.0492	0.8656	9.5425
1.2700	0.3356	9.6693
0.9470	0.4576	9.6903
0.8584	0.6179	9.3254
1.1647	0.4475	9.5066
1.2251	0.1926	9.8237
1.1294	0.5659	9.6430
1.0798	0.9613	9.5234
1.2855	0.6568	9.3978
1.1575	0.2291	9.4325
1.1515	1.0361	9.1513
1.0570	1.0235	9.4570
1.2066	0.3751	9.4241
1.0522	0.8345	9.4283
0.9278	1.1438	9.3649
0.9858	0.8429	9.6807
1.0307	0.5408	9.4893
0.9559	0.7466	9.5635
1.0235	1.0181	9.5150
1.0050	0.9081	9.2715
0.9613	0.4953	9.7214
1.2556	0.7645	9.7609
1.0696	0.6389	9.4749
1.1689	0.3781	9.3738
1.1838	0.5886	9.6263
1.2245	0.5970	9.3864
1.1115	0.4851	9.5688
1.1150	0.6407	9.5856
1.2873	0.3362	9.4654
1.2473	0.5803	9.4390
1.1085	0.7155	9.2356
1.2754	0.8207	9.6622
1.3376	0.8130	9.5353
1.0833	0.7280	9.5270
1.1689	0.4827	9.3816
1.0486	0.9087	9.7016
1.0618	0.7705	9.3738
0.9158	0.5629	9.7716
1.0415	0.6879	9.6723
1.0026	0.9529	9.5353
0.9918	0.4134	9.4857
1.3328	0.4648	9.5497
1.0492	0.9254	9.5222
1.0810	0.6562	9.3631
1.2849	0.5085	9.6652
1.3872	0.6275	9.6185
1.2036	0.9135	9.5192
1.2897	0.8560	9.1220
1.3214	0.3123	9.5461
1.2389	0.3470	9.5168
0.9685	1.0373	9.3236
1.0624	0.4863	9.5599
1.3920	0.4277	9.7148
1.1282	0.9141	9.4582
1.1940	0.7603	9.3032
1.5296	0.4869	9.6544
1.2185	0.5743	9.5144
1.2018	0.8955	9.5036
1.1240	1.1192	9.2733
1.2036	0.5976	9.6185
1.2586	0.5162	9.3350
0.7813	1.0008	9.2362
1.1019	0.7484	9.4498
1.1007	0.5025	9.6670
1.0253	0.8249	9.4731
1.2072	0.6347	9.4133
1.3657	0.5127	9.5671
1.1049	0.5354	9.3361
0.9476	0.7238	9.5617
1.1055	0.7741	9.4785
0.9673	0.6957	9.6161
1.1767	0.5904	9.4014
1.0941	0.7860	9.6161
1.0708	0.5826	9.4719
0.8417	0.6999	9.7477
0.9206	0.6616	9.5174
1.0050	0.4606	9.6412
0.8249	0.4032	9.6849
0.8524	0.8028	9.5736
0.9523	0.7842	9.4791
1.0032	0.5581	9.4354
0.6927	0.9619	9.5796
0.9470	1.1198	9.5641
0.8895	0.7824	9.8428
1.0672	0.5641	9.5222
0.6239	0.9182	9.6921
0.8405	0.9649	9.6478
0.8782	0.5330	9.6472
0.6748	0.4319	9.9846
0.9511	0.8931	9.6006
0.8082	0.8518	9.3888
1.0134	0.2465	9.4223
1.0642	0.7902	9.8602
1.0690	0.9003	9.3601
1.0636	0.7549	9.6245
1.0630	0.5605	9.5365
0.9529	0.7633	9.7346
0.9482	0.5832	9.5383
0.9021	0.5444	9.6047
0.8722	0.5378	9.8045
1.0271	0.8518	9.5952
0.6670	0.9123	9.5844
0.6742	0.4774	9.8865
0.8823	0.5264	10.0701
0.6006	0.8189	9.4504
0.4391	0.8357	9.7968
0.8483	0.7280	9.7782
0.6580	0.8674	10.1419
0.4528	0.5115	9.9894
0.7143	0.5186	10.1347
0.4373	1.0104	9.6933
0.6802	0.8770	9.5126
0.8225	0.7765	9.8524
1.0528	0.7125	9.5820
1.0720	0.9595	9.6466
1.2227	0.7920	9.3415
1.2646	0.6072	9.6215
1.0211	0.6927	9.1423
0.8142	1.1139	9.4540
1.3011	0.1657	9.3930
1.0014	0.3344	9.7196
0.6185	0.9272	9.1316
0.8740	0.8100	9.4893
1.0528	0.3505	9.8626
0.9601	0.7549	9.4809
0.7687	1.1162	9.4947
1.2867	0.8931	9.6083
0.9751	0.6808	9.7555
1.0331	0.8016	9.6029
1.0151	0.9302	9.7052
1.1192	0.5324	9.4887
0.8297	0.3745	9.6466
1.0211	0.6646	9.3296
0.9266	0.3147	9.4014
0.7155	0.2213	9.7262
1.0325	0.6640	9.5796
1.0510	0.7143	9.6346
1.1222	0.4744	9.5623
1.2790	0.8674	9.7124
1.3633	0.8142	9.6179
1.0947	0.8058	9.6729
1.1779	0.7567	9.3792
1.0481	1.0319	9.6717
1.0307	0.6485	9.3924
0.7095	0.5850	9.7070
0.8040	0.6323	9.6376
0.5474	0.6556	9.6000
0.4977	0.7376	9.5916
0.4798	0.3045	9.7118
0.6837	0.6443	9.6676
0.7436	1.0122	8.9467
1.0205	0.5168	9.6616
1.2754	0.4893	9.6981
0.8154	1.2155	9.5264
0.9978	1.0732	9.5013
1.1294	0.5480	9.6149
0.9356	0.5928	9.2691
0.7208	0.8405	9.3385
1.0199	0.6748	9.6424
1.1539	0.4893	9.6460
1.0157	0.6963	9.5216
1.2108	0.9170	9.1878
1.1635	0.7489	9.4989
1.1366	0.5611	9.5479
0.9852	1.0146	9.6969
1.0953	0.8369	9.3762
1.0355	0.5958	9.4564
0.9673	0.8656	9.4235
0.9308	0.8064	9.5521
0.9105	0.3882	9.4791
0.6419	0.7352	9.6119
0.7388	0.7890	9.4223
0.8243	0.6120	9.6987
0.8554	0.5509	9.4462
1.0439	0.8794	9.6023
1.2461	0.5815	9.5174
1.1725	0.6772	9.4779
0.8255	0.7184	9.9415
1.1743	0.8620	9.5276
0.7328	0.7555	9.7106
0.7962	0.3739	9.7304
0.8560	0.8022	9.8578
0.7842	1.0839	9.5712
0.8261	0.3846	9.8572
0.7920	0.6114	9.8883
0.9224	0.8985	9.6699
0.9057	0.9003	9.5240
1.1396	0.3972	9.5318
1.1456	0.4827	9.6376
1.0421	0.7747	9.2584
0.7633	0.9523	9.5970
1.0857	0.6120	9.6430
0.8937	0.6275	9.7298
0.8022	0.9182	9.1764
0.8907	0.6084	9.5617
1.0301	0.3428	9.7094
0.8686	1.1725	9.4498
0.9428	0.8853	9.5449
1.1880	0.6957	9.5946
1.0774	0.7460	9.4115
0.8423	0.6676	9.5090
1.0570	0.7842	9.6352
0.9440	0.6490	9.5874
0.8494	0.7310	9.8051
1.0235	0.6843	9.3696
1.0068	0.3159	9.5246
0.9416	0.5623	9.5802
0.8578	0.9093	9.5599
1.0116	0.5928	9.6568
0.8788	0.6395	9.6993
0.7866	0.9356	9.3332
1.0098	0.7663	9.4259
1.0576	0.3051	9.4313
0.6646	0.7693	9.2925
0.6981	1.0786	9.4821
0.9158	0.4163	9.7627
0.8207	0.4026	9.5904
0.8040	0.6562	9.4008
1.0223	0.6784	9.4438
1.1031	0.6467	9.5431
0.9105	0.5139	9.8404
1.3310	0.8506	9.5617
1.0905	1.0373	9.5222
1.0786	0.4493	9.5359
1.1593	0.8052	9.9092
1.2149	0.8967	9.5509
0.8237	0.7585	9.6987
0.9673	0.5216	9.7256
0.9224	0.6556	9.5198
0.8776	0.7328	9.5575
0.8309	0.4720	9.5246
1.0163	0.4702	9.7519
0.9182	0.7579	9.4283
0.6514	1.0672	9.5431
1.0373	0.6359	9.6981
0.9649	0.6652	9.8392
0.8393	0.7346	9.4875
0.8004	0.6712	9.6299
0.9649	0.7926	9.7130
0.6556	1.0594	9.4037
0.7717	0.5856	9.6532
1.1779	0.3003	9.6921
0.8435	0.9206	9.6149
1.0385	0.5826	9.6538
1.2700	0.4995	9.8440
1.1659	0.4756	9.5694
0.9583	0.5103	9.5132
1.2622	0.6784	9.4438
1.1055	0.4564	9.5712
1.1168	0.5312	9.4821
0.8847	1.1480	9.4965
1.0020	0.6407	9.4205
0.8584	0.4457	9.6652
0.7819	0.9822	9.4977
0.7406	0.9751	9.6376
0.9158	0.3966	9.5970
0.8435	0.5127	9.4528
0.8919	0.7615	9.7011
0.9033	0.7920	9.4893
0.9589	0.7699	9.5599
1.1198	0.6299	9.4941
0.9721	0.9499	9.5467
0.9380	0.8477	9.1884
0.9314	0.4678	9.6759
1.0995	0.5019	9.4809
0.8548	0.9482	9.3984
0.8674	0.2865	9.5413
1.0708	0.5970	9.7322
0.8644	0.8022	9.4977
0.8034	0.6048	9.5898
0.9440	0.8070	9.6825
1.0277	0.9541	9.5054
0.9075	0.8668	9.4187
1.0750	0.9918	9.4253
1.0774	0.7220	9.7692
0.8189	0.8237	9.6000
0.8548	0.7208	9.4857
1.0738	0.3601	9.7441
0.7166	0.5629	9.7513
0.8231	0.8387	9.3469
1.0696	0.3625	9.8153
0.9188	0.2465	9.6550
0.9398	0.9069	9.3511
1.0624	1.0026	9.6526
1.2102	0.4283	9.3565
1.0295	0.5701	9.8668
1.0995	0.8267	9.6119
0.8100	0.8369	9.5342
0.9458	0.5587	9.5102
0.9266	0.7196	9.6406
0.7681	0.7962	9.2751
0.5593	0.9248	9.5222
1.0032	0.6885	9.5234
0.8417	0.8662	9.4935
0.7723	0.9733	9.3427
1.0833	0.9493	9.5138
1.0642	0.6664	9.4899
0.8237	0.8776	9.3009
1.0522	0.6969	9.3858
1.1180	0.4193	9.3373
0.7753	0.9703	9.4713
0.9990	0.7747	9.3565
1.1043	0.3805	9.6520
0.8710	0.5420	9.4672
0.9087	0.6496	9.6628
1.0576	0.4965	9.5246
0.9260	0.5055	9.5276
0.9601	0.7250	9.5898
0.9703	0.9230	9.6382
1.0002	0.6897	9.4761
1.0624	0.4098	9.8045
0.9565	0.8022	9.6323
0.7890	1.0845	9.3768
0.8889	0.6191	9.6879
1.0618	0.3715	9.6861
0.8016	0.8237	9.5018
0.9493	0.5491	9.4719
1.1174	0.5037	9.6000
0.9069	0.7442	9.4008
0.9912	0.5581	9.5443
1.1210	0.7268	9.5623
0.9111	0.8429	9.5868
1.1121	0.6185	9.5192
1.0325	0.7202	9.6329
0.8710	0.7208	9.4372
0.8991	0.7711	9.4893
0.8213	0.8243	9.4133
0.8435	0.6197	9.4821
0.8578	0.5049	9.8291
0.9152	0.9158	9.6101
0.8895	0.8321	9.4546
1.1360	0.2907	9.5527
1.1156	0.5204	9.8147
0.9200	1.0044	9.2279
1.0277	0.5450	9.5832
1.2496	0.4265	9.5365
0.9105	0.8154	9.3110
0.9218	0.7950	9.4534
0.9936	0.7830	9.5844
0.7184	0.6993	9.6789
0.9452	0.5192	9.5168
0.9039	0.7908	9.5862
0.8560	0.8740	9.3822
0.8638	0.7023	9.7250
1.0002	0.9452	9.6006
0.8578	0.8231	9.5635
0.9320	0.6245	9.6490
0.8291	1.0612	9.7567
0.8447	0.7866	9.2859
0.9248	0.3499	9.6472
0.9864	0.6784	9.6221
0.8357	0.8608	9.3529
1.0289	0.4816	9.4175
1.3795	0.3153	9.5389
0.9948	0.6556	9.6317
0.9996	0.6395	9.5455
1.1049	0.6802	9.5844
1.0481	0.4086	9.3302
0.9858	0.3858	9.5443
0.9966	0.9051	9.4779
0.9170	0.8997	9.3894
1.0181	0.5844	9.6652
0.9045	0.8841	9.6789
0.6221	1.0205	9.4091
0.6975	0.5689	9.6556
0.8004	0.8734	9.7011
0.8638	0.8967	9.6029
0.8309	0.5019	9.9308
0.9942	0.6024	9.7435
0.8100	0.8829	9.5174
0.9290	0.4313	9.4618
1.0128	0.4343	9.6406
0.9517	0.3972	9.4438
0.9182	0.5330	9.4109
1.0863	0.7932	9.3397
1.0845	0.6305	9.4384
1.1838	0.6425	9.5383
1.0989	0.9852	9.5724
1.0140	0.9416	9.4325
1.0475	0.4528	9.6598
1.0983	0.8231	9.5066
0.8518	1.1809	9.4091
0.9757	0.6239	9.6239
1.0110	0.6772	9.7507
0.8124	0.7256	9.4313
0.8865	0.6006	9.4546
0.7519	0.7208	9.6544
0.6144	0.9063	9.4444
0.7807	0.6042	9.8309
0.9613	0.4032	9.6466
0.7609	0.5456	9.5611
1.0504	0.6993	9.5204
0.9571	0.8142	9.4959
1.0247	0.6233	9.4103
1.2532	0.3434	9.7764
0.9464	0.8213	9.5258
0.7657	1.1312	9.3774
1.1246	0.5874	9.6514
0.9966	0.4989	9.5342
0.7783	0.7789	9.4277
0.9733	0.9511	9.5150
0.8321	0.5982	9.4390
0.7986	0.8716	9.4259
1.0792	0.7914	9.5168
1.0151	0.5001	9.4875
0.9990	0.7669	9.7034
1.1456	0.8124	9.6729
1.1378	0.5527	9.5240
1.1438	0.3858	9.3918
1.0134	0.5767	9.6759
0.8261	0.7149	9.3415
0.7633	0.7035	9.5671
1.0295	0.6455	9.7728
0.7268	0.6479	9.4863
0.7687	1.1509	9.5694
1.0630	0.9990	9.5605
0.7448	0.5581	9.6616
1.0128	0.6646	9.5485
0.8405	0.6526	9.6508
0.8650	0.5779	9.6107
1.0151	0.6431	9.7920
0.9793	0.6000	9.5922
1.0032	0.3721	9.4546
1.1964	0.3607	9.6568
0.9685	0.9398	9.5353
0.9380	0.8100	9.2518
1.0337	0.7813	9.7088
1.2144	0.4582	9.3290
0.7998	1.0241	9.5252
1.0128	1.4441	9.4977
1.0606	0.8800	9.5306
0.9799	0.3655	9.9367
1.0199	0.7232	9.9302
0.6903	0.8710	9.5030
0.7968	0.3547	9.4833
0.8656	0.5623	9.6550
0.8369	0.5378	9.5515
0.7872	0.2237	9.7932
1.0283	0.7603	9.6723
0.9057	0.8483	9.2506
0.9757	0.5474	9.5653
1.1749	0.7382	9.6658
1.0020	0.6825	9.5820
0.9344	0.9087	9.4749
1.1204	1.0223	9.2626
1.0558	0.7824	9.5599
1.1282	0.6084	9.5880
1.0253	1.1061	9.8201
0.8740	1.0678	9.2315
1.0594	0.3422	9.4049
1.0959	0.6269	9.4791
0.8171	0.5898	9.2004
0.8608	0.5815	9.6586
0.9601	0.6855	9.6029
0.6784	0.6909	9.5766
1.0008	0.3990	9.6909
1.0199	0.5192	9.7447
0.8357	0.7681	9.6041
0.9912	0.9517	9.5042
0.9775	0.7789	9.4402
1.0235	0.6843	9.6023
1.0618	0.6419	9.8249
0.7944	0.9182	9.5952
0.7023	0.8674	9.3840
0.8154	0.3147	9.5276
0.7615	0.2847	9.4911
0.6299	0.8853	9.5007
0.9272	1.0361	9.6191
1.0169	0.5581	9.4331
1.1964	0.8895	9.5850
1.3675	0.7795	9.5078
1.2796	0.7071	9.6053
1.4076	0.7047	9.4175
1.1677	0.9141	9.4498
1.1294	0.3589	9.4390
1.0624	0.3661	9.7447
0.7346	0.4678	9.7818
0.4648	0.5246	9.4965
0.6772	0.7035	9.5623
0.6281	0.4487	9.6771
0.7262	0.5892	9.7130
0.8853	1.3836	9.6681
1.0660	1.3005	9.4043
1.0869	0.7609	9.5653
1.2736	1.0660	9.5754
1.0002	1.0546	9.4217
0.9392	0.5844	9.5365
0.9715	0.4857	9.5282
0.6975	0.5234	9.4109
0.9230	0.0377	9.4313
0.7352	0.2459	9.7788
0.7801	0.4158	9.4779
0.9141	0.6263	9.5318
1.0666	0.6520	9.3290
1.1168	0.7202	9.6131
1.2927	0.7783	9.7543
1.0810	1.2604	9.8231
0.9302	1.2867	9.4235
1.0696	0.8201	9.5383
1.0205	0.4600	9.6161
0.7484	0.7753	9.5611
0.7735	0.9176	9.5383
0.7460	0.3846	9.5090
0.7543	0.4104	9.5928
0.9218	0.4630	9.6125
0.9434	0.5916	9.5479
1.1288	0.7699	9.5868
1.2383	0.9577	9.5180
1.0810	0.7382	9.3631
1.1832	0.7669	9.5575
1.1575	0.7621	9.5078
0.7507	0.7561	9.4707
0.9739	1.0397	9.6167
0.7077	0.7489	9.5814
0.9266	0.1789	9.6879
0.8602	0.9529	9.7453
0.6066	1.0151	9.3708
0.7627	0.6161	9.8237
0.9428	0.5629	9.8386
0.7807	0.6724	9.7686
1.1240	0.7166	9.6586
1.0498	0.5282	9.5300
0.9224	0.5300	9.5413
1.2048	0.5707	9.6927
1.0223	0.5031	9.4893
1.0205	0.5216	9.5180
1.1737	0.6885	9.6006
0.8979	0.7998	9.5150
1.1695	0.6317	9.6179
1.0528	0.7202	9.6939
0.7902	0.4756	9.4965
0.8853	1.0116	9.5264
0.8572	0.9864	9.1166
0.7639	0.5719	9.6897
1.0451	0.8076	9.8099
0.9332	0.8973	9.5413
0.9045	0.7783	9.5563
1.0199	0.8130	9.6131
0.6353	0.6760	9.6137
0.9924	0.3960	9.6921
0.9416	0.7029	9.6287
0.9482	0.5013	9.2662
0.9984	0.7681	9.5306
1.0092	0.9188	9.3296
1.0367	0.8165	9.4456
1.2987	0.7962	9.6693
1.0510	0.5438	9.5838
0.9188	0.9571	9.6759
1.0134	0.9392	9.4043
0.8124	0.3350	9.6006
0.9954	0.4373	9.7226
0.8620	0.6526	9.5013
0.7974	0.5306	9.6460
0.7908	0.8219	9.7363
0.6568	0.6072	9.5252
0.8626	0.4899	9.5479
0.9344	0.7902	9.6000
1.0217	0.8459	9.5587
1.2030	0.8237	9.5515
1.1641	1.2084	9.3852
1.2299	0.9667	9.3445
1.4285	0.5593	9.6131
1.0977	0.4337	9.8010
0.7998	0.8453	9.8584
0.7735	0.8291	9.4618
0.5037	0.2171	9.4666
0.7992	0.3153	9.7088
0.7107	0.4989	9.3738
0.8788	0.4014	9.5515
0.8698	1.0187	9.7298
0.8154	0.8782	9.6203
0.9254	0.9123	9.5563
1.3041	0.7819	9.5772
1.1198	0.7352	9.6562
1.3166	0.8853	9.7710
0.9470	0.9936	9.6197
1.1025	0.7525	9.4689
1.2078	0.4965	9.5132
0.9464	0.0921	9.5850
0.6323	0.6963	9.9272
0.5922	0.7202	9.6364
0.5127	0.3260	9.8303
0.6102	0.4804	9.6789
0.7089	0.5270	9.4277
1.1545	0.8447	9.5342
1.2120	0.7986	9.3421
1.1456	1.0421	9.4534
1.2891	1.1432	9.6006
1.0283	0.7998	9.5168
1.1862	0.6700	9.6436
1.1695	0.7394	9.5922
0.8405	0.4869	9.5563
0.9320	0.9254	9.4809
0.8560	0.4271	9.4809
0.9033	0.1394	9.6520
0.8919	0.5791	9.5647
0.7956	0.8231	9.5383
0.8058	0.7729	9.5575
0.8441	0.6640	9.7884
1.0169	0.8339	9.7968
1.0827	0.9248	9.4995
1.0696	0.4756	9.6107
0.9727	0.8165	9.6245
0.9200	0.7573	9.4121
0.8471	0.6975	9.6741
0.7484	0.5282	9.6987
0.9129	0.4923	9.5832
0.9464	0.7866	9.6364
0.8297	0.7304	9.4097
1.1109	1.0349	9.4265
1.1773	0.8237	9.5473
1.1581	0.4576	9.5700
1.0935	1.1156	9.7860
1.0570	0.8405	9.4737
0.8441	0.5826	9.7184
0.8118	0.4935	9.8955
0.6748	0.5785	9.6221
0.9278	0.6455	9.5270
0.8309	0.2189	9.5617
0.9063	0.5456	9.6095
0.9996	0.7238	9.5515
0.9290	0.7495	9.5336
0.9302	0.8542	9.5503
1.1623	0.7902	9.4749
1.2335	0.8578	9.4438
1.1324	0.9242	9.5641
1.0110	0.9673	9.5988
0.8782	0.5898	9.6041
0.6993	0.5527	9.6370
0.7238	0.6496	9.7028
0.8572	0.6580	9.5473
1.0798	0.2680	9.6723
0.8016	0.4636	9.7076
0.9679	0.9894	9.6041
1.0056	0.9224	9.3762
1.1097	0.5515	9.5084
1.2078	0.5617	9.5587
1.1444	0.7801	9.5641
0.8560	0.6921	9.7196
0.7980	0.7125	9.6705
0.7657	0.6796	9.4301
0.8375	0.5856	9.4025
0.8453	0.6987	9.4181
1.1216	0.8195	9.5282
1.0792	0.7777	9.6317
0.8674	0.6903	9.7704
0.8327	0.8973	9.6185
0.8602	0.8010	9.4516
1.1874	0.5043	9.4833
1.0935	0.3410	9.7280
1.0618	0.8124	9.5156
0.8770	0.6263	9.5198
0.7023	0.6395	9.6311
0.7507	0.3751	9.6089
0.7741	0.6544	9.4576
1.1061	0.7615	9.4684
1.1300	0.8991	9.5653
1.1521	0.7962	9.5395
1.0475	0.8327	9.6406
0.9781	0.6772	9.6634
0.8076	0.8746	9.5545
0.8201	0.6329	9.5533
1.0373	0.4349	9.6137
0.8919	0.4959	9.6981
0.9015	0.8985	9.4378
0.8740	0.8040	9.4492
1.0163	0.4516	9.6113
0.9374	0.4451	9.6837
1.0798	0.8626	9.6508
0.9936	0.8249	9.3720
1.0863	0.8094	9.6101
1.0068	0.5234	9.5563
0.9948	0.7178	9.6592
0.9009	0.7525	9.5336
0.8626	0.7436	9.5455
0.8829	0.5773	9.4360
0.8644	0.4881	9.5671
0.9147	0.5761	9.7633
0.7962	0.7824	9.5371
0.8823	0.8865	9.4713
1.0564	0.5049	9.4360
1.0929	0.6879	9.6927
1.1569	1.0702	9.5946
1.0175	1.0241	9.4797
1.0594	0.7011	9.4911
0.8506	0.4421	9.5060
0.8279	0.5204	9.7052
0.8189	0.7938	9.4642
0.8829	0.7256	9.6598
1.0056	0.5360	9.4594
1.0678	0.5725	9.6077
1.0863	0.6449	9.5401
0.6377	0.8931	9.5581
0.8835	0.9081	9.5365
0.8297	0.6784	9.4073
1.1856	0.4421	9.6412
0.9996	0.5826	9.5611
1.2006	0.9834	9.5629
0.9344	0.8165	9.3774
0.9631	0.5844	9.6520
0.8369	0.4349	9.6681
0.8321	0.7807	9.6927
0.8991	0.7448	9.4678
1.0235	0.6999	9.5838
0.9960	0.5025	9.5018
0.9745	0.6144	9.7034
0.9380	0.7334	9.5760
0.7059	0.8357	9.4672
0.9087	0.7196	9.4905
0.9176	0.5653	9.5533
1.1791	0.6138	9.6251
0.9320	0.8865	9.6035
0.9655	0.9290	9.4851
0.9374	0.6730	9.5150
0.9703	0.4642	9.6179
1.0265	0.4684	9.6915
0.9541	0.9499	9.5862
0.9613	0.6831	9.4630
1.1001	0.6808	9.5605
0.9595	0.4223	9.6023
0.9314	0.8243	9.6460
0.9009	0.8351	9.5605
0.8488	0.8907	9.5533
0.9876	0.5354	9.4761
0.9643	0.6042	9.6113
1.0439	0.6335	9.6358
0.8028	0.9230	9.5874
0.8853	0.7137	9.4319
0.9206	0.6150	9.4935
0.9882	0.4875	9.6580
0.9805	0.6933	9.6604
0.9721	0.9260	9.5473
1.0552	0.6676	9.4707
0.9673	0.5988	9.6400
0.9577	0.4600	9.6837
0.8847	0.7896	9.6867
0.8405	0.7095	9.5593
0.8949	0.7789	9.5742
1.0540	0.4080	9.5001
1.0678	0.6993	9.6257
1.0481	0.6556	9.6358
0.9027	1.0086	9.5958
0.8650	0.6921	9.4761
0.9206	0.7412	9.4606
0.9625	0.4654	9.7070
0.9661	0.8118	9.6107
0.9876	0.8309	9.5688
0.9817	0.8076	9.4217
1.0439	0.5318	9.6095
0.9141	0.4893	9.6023
0.8961	0.6825	9.7316
0.8058	0.7938	9.5342
0.9176	0.7777	9.5958
1.0289	0.5157	9.5054
1.1432	0.6030	9.6777
1.1025	0.6167	9.6167
1.0104	0.9476	9.5988
0.7914	0.7484	9.4737
0.9081	0.7023	9.4773
0.9206	0.4271	9.5922
0.9864	0.7328	9.7202
0.9565	0.7956	9.6227
0.9362	0.9559	9.4091
1.0833	0.5115	9.4923
0.9661	0.6018	9.5916
0.9302	0.5312	9.5994
0.8177	1.0283	9.4767
0.9003	0.8034	9.5766
0.9511	0.7442	9.4869
1.1270	0.4337	9.6466
0.9942	0.6700	9.5922
0.9793	0.8064	9.6185
0.6849	0.8853	9.4151
0.8728	0.6156	9.4600
1.0151	0.4941	9.4893
1.0857	0.5216	9.5844
0.9541	0.7603	9.5682
1.0953	1.0576	9.5515
0.9111	0.6754	9.4642
0.9476	0.5587	9.6532
0.7932	0.5240	9.5760
0.9230	0.7962	9.5677
0.8381	0.8710	9.4785
1.0397	0.8177	9.5862
1.0241	0.4827	9.5910
1.1192	0.6054	9.8709
0.9499	0.5378	9.5922
0.8752	0.9368	9.6819
0.7202	0.6766	9.4648
0.9565	0.7376	9.6867
1.0187	0.4361	9.5449
1.1509	0.7101	9.7848
1.0056	0.7053	9.5766
0.9900	0.8895	9.6933
1.0193	0.5151	9.4707
0.8991	0.5545	9.6017
0.9015	0.4899	9.5096
0.8279	0.9446	9.5365
1.0092	0.7531	9.4127
0.9942	0.7848	9.5635
1.0971	0.5677	9.6215
0.9141	0.6951	9.6119
0.9135	0.8536	9.5970
0.6449	0.8136	9.5294
0.8955	0.6616	9.5276
0.8782	0.4941	9.5808
1.1557	0.5844	9.6077
0.9099	0.6963	9.6023
1.0086	0.8991	9.4426
0.9069	0.6042	9.4247
1.0738	0.5809	9.6167
0.8656	0.4995	9.6179
0.9595	0.8447	9.5844
0.8728	0.8333	9.4929
1.0457	0.7388	9.5928
0.9332	0.4965	9.5497
1.0929	0.6365	9.6341
0.9194	0.6496	9.6119
0.8716	0.9338	9.6215
0.7807	0.6568	9.4755
0.9787	0.6915	9.5730
1.0247	0.4540	9.5557
1.0720	0.8106	9.7034
0.9535	0.8303	9.5186
0.9464	0.8303	9.5455
1.0516	0.5713	9.4468
0.8806	0.4929	9.5252
1.0026	0.7053	9.6089
0.8219	0.8542	9.5946
1.0690	0.7424	9.4014
0.9236	0.6167	9.5647
1.0594	0.5085	9.5682
0.9523	0.6365	9.5629
0.9487	0.8644	9.4456
0.7633	0.7902	9.4486
0.9709	0.6209	9.5138
0.9218	0.5916	9.5575
1.1641	0.6586	9.6006
0.8788	0.7854	9.6071
0.9715	0.8650	9.5192
0.7675	0.6431	9.4546
1.0606	0.5468	9.5814
0.8064	0.6221	9.5916
1.0457	0.7824	9.6023
0.9254	0.8662	9.4797
1.0971	0.6359	9.5736
0.9679	0.5910	9.5407
1.0056	0.5462	9.6670
0.8883	0.7005	9.5539
0.8231	0.7615	9.7872
0.8536	0.6909	9.4253
0.9870	0.5749	9.5922
1.1097	0.5886	9.5359
0.9697	0.8171	9.7058
0.8961	0.8800	9.5312
0.8237	0.7902	9.5198
0.9936	0.5982	9.4642
0.9613	0.5515	9.6658
1.0941	0.7298	9.6029
0.9452	0.8644	9.5814
1.0726	0.6748	9.4498
0.8004	0.5994	9.5790
0.9661	0.4313	9.5844
0.8189	0.7256	9.6227
0.9487	0.8800	9.5138
0.7998	0.8704	9.4701
1.0546	0.5174	9.5030
0.9817	0.6586	9.5569
1.1569	0.5779	9.5635
0.9093	0.9631	9.6059
0.8530	0.7968	9.5114
0.7531	0.7507	9.5036
1.0122	0.3834	9.5766
0.9350	0.7155	9.6161
1.0427	0.7244	9.5766
0.9799	0.9954	9.5078
1.1168	0.6024	9.3625
0.9410	0.6329	9.5491
0.9727	0.4032	9.5688
0.8303	0.7956	9.5982
0.9021	0.8040	9.3637
0.8189	0.7860	9.5132
1.1049	0.5145	9.5748
1.0187	0.5701	9.6329
1.0588	0.7442	9.5958
0.7394	0.9111	9.4055
0.8644	0.8028	9.5090
0.7609	0.5079	9.5539
1.0074	0.5139	9.6352
0.8471	0.6425	9.5874
1.0050	0.9386	9.5210
0.9194	0.7651	9.3780
1.2018	0.6520	9.6012
0.8794	0.4241	9.6442
0.9972	0.7298	9.6807
0.7334	0.8112	9.5700
0.8985	0.8321	9.5629
0.8309	0.4546	9.5138
1.1468	0.4361	9.6789
1.1091	0.5695	9.5090
1.0415	1.0056	9.6095
0.8351	0.8303	9.3846
0.9081	0.7244	9.6496
0.9003	0.4917	9.4785
0.9434	0.6341	9.7585
0.8632	0.8255	9.4307
0.9697	0.9003	9.5862
1.1162	0.6090	9.4486
1.1139	0.4827	9.9182
0.8889	0.5378	9.6358
0.8136	0.8207	9.6753
0.7609	0.8201	9.4097
0.9476	0.6293	9.5970
1.0379	0.5091	9.5090
1.1868	0.6114	9.6843
1.1133	0.8931	9.4791
0.9410	0.9655	9.5748
0.9063	0.6353	9.5383
0.9069	0.5168	9.7148
0.8459	0.4798	9.6221
0.8913	0.8722	9.6179
0.7765	0.7998	9.4432
1.0313	0.6987	9.6053
1.0110	0.4498	9.6095
1.0510	0.7005	9.8069
0.7914	0.7489	9.5748
0.8219	0.9775	9.3661
0.8417	0.5898	9.4845
1.1563	0.5737	9.7495
1.0098	0.4732	9.6562
1.1354	0.9308	9.5760
0.8818	0.7938	9.3278
1.0911	0.6610	9.5838
0.8082	0.2722	9.6436
0.9858	0.5073	9.6837
0.7603	0.8345	9.4115
0.9446	0.8399	9.5964
0.8512	0.7107	9.4540
1.1569	0.4451	9.8267
0.9386	0.7017	9.6029
0.9051	0.9158	9.5946
0.6526	0.8213	9.3762
0.8393	0.6335	9.5419
0.8626	0.5037	9.5826
1.0953	0.5486	9.5437
0.9452	0.9135	9.4737
1.1384	0.8979	9.4827
1.0666	0.7202	9.4713
1.0857	0.4295	9.6251
0.8590	0.6467	9.5700
0.8243	0.7400	9.4205
0.8165	0.7824	9.3553
1.1198	0.5767	9.4845
1.0241	0.5234	9.6275
1.1258	0.6921	9.6556
0.7765	0.9099	9.4857
0.9111	0.8823	9.5342
0.6760	0.5809	9.5898
0.9733	0.5151	9.6807
0.8393	0.6879	9.5048
1.0307	0.9745	9.4139
0.8010	0.7107	9.4151
1.1186	0.5204	9.6424
0.9434	0.4696	9.5748
0.9679	0.9081	9.5300
0.7274	0.8405	9.3816
0.9338	0.6682	9.5090
0.9822	0.5587	9.5365
1.2179	0.5318	9.5970
1.0654	0.7998	9.4923
1.1168	0.7400	9.5270
0.8943	0.7346	9.5342
1.0540	0.4457	9.6574
0.7340	0.6987	9.6771
0.7759	0.7591	9.5216
0.8285	0.8871	9.5024
1.0821	0.5312	9.5629
1.0469	0.7172	9.6514
1.0128	0.7358	9.5724
0.8638	0.9763	9.4701
0.9464	0.6281	9.4773
0.8506	0.6000	9.6317
0.9368	0.5653	9.5694
1.0038	0.7687	9.4827
1.0971	0.7286	9.3547
1.1611	0.5767	9.5353
1.0576	0.6012	9.6604
0.8752	0.7394	9.7034
0.7711	0.8488	9.5575
0.7902	0.6018	9.5593
0.8267	0.5671	9.5497
0.9643	0.5749	9.6095
0.9757	0.9996	9.4642
1.0558	0.8782	9.4354
0.9942	0.7095	9.5688
0.9834	0.6114	9.6975
0.8010	0.6598	9.7543
0.8447	0.9117	9.4594
0.8638	0.5994	9.5557
1.0558	0.4475	9.4187
1.0720	0.4397	9.6837
1.1162	0.8207	9.5222
0.8363	0.8345	9.5473
0.8985	0.6036	9.5677
0.9464	0.4092	9.7351
0.7717	0.7089	9.5814
0.9296	0.9446	9.5042
0.9727	0.8076	9.4642
1.2012	0.6520	9.5365
1.0959	0.4953	9.6825
1.0935	1.0265	9.4654
0.7011	0.8776	9.4911
0.8381	0.7448	9.6065
0.7328	0.3787	9.7340
0.9296	0.5707	9.5282
0.9170	0.7932	9.5521
1.0469	0.7143	9.4378
1.1683	0.5761	9.6394
1.0540	0.4678	9.6676
1.0253	0.9398	9.5365
0.7208	0.7172	9.4785
0.9362	0.7615	9.4947
0.8991	0.3882	9.6514
1.0122	0.8937	9.4498
0.9350	0.7513	9.5342
1.0839	0.8381	9.4809
1.0187	0.4798	9.6783
0.8812	0.6461	9.6634
0.8213	0.8459	9.5940
0.6915	0.7525	9.5084
1.0116	0.5988	9.5712
0.9936	0.4062	9.6801
1.2419	0.8955	9.4462
0.9266	0.8524	9.4301
1.0810	0.7962	9.5234
0.8841	0.4205	9.7411
0.8477	0.5222	9.5605
0.7501	0.7208	9.5982
1.0086	0.7460	9.5114
1.0343	0.5450	9.5700
1.1097	0.5001	9.6454
1.1414	0.9308	9.4666
0.8919	0.8429	9.5013
0.9763	0.7424	9.5030
0.8913	0.5252	9.7136
0.9164	0.9003	9.4941
0.8578	0.8596	9.5126
0.9906	0.7723	9.4761
1.1073	0.3966	9.6664
0.9846	0.5551	9.5084
0.8871	0.9015	9.5539
0.7842	0.7513	9.5862
0.8704	0.4899	9.5874
0.8016	0.3595	9.7651
0.9817	0.7436	9.5264
0.9380	0.8237	9.4666
1.1324	0.6897	9.4097
1.1336	0.4911	9.6580
1.0534	0.8626	9.6646
0.9069	0.9272	9.5300
0.8674	0.7986	9.4977
0.9368	0.4570	9.5623
0.8572	0.5192	9.7304
1.0062	0.8584	9.5276
1.0217	0.6293	9.4701
1.0080	0.5689	9.4953
0.8818	0.5162	9.6855
0.8620	0.8823	9.7884
0.8381	0.8130	9.4779
0.9111	0.6251	9.5234
1.0714	0.4385	9.5419
1.0481	0.8417	9.5587
1.0893	0.9015	9.4366
1.0457	0.7759	9.5365
0.9721	0.4798	9.6017
0.7735	0.5695	9.7208
0.7795	0.7789	9.5509
0.9039	0.7729	9.5030
0.9607	0.5324	9.5018
1.0528	0.5462	9.5718
1.0546	0.8895	9.5557
1.0235	0.8997	9.4402
0.9978	0.6927	9.6430
0.9164	0.5623	9.7046
0.8459	0.7262	9.6646
0.8171	0.8429	9.4552
1.0409	0.6449	9.4480
1.0989	0.4905	9.5647
1.0020	0.6042	9.5910
0.9386	0.8506	9.5808
0.9087	0.7645	9.4666
0.8764	0.4941	9.6867
0.7968	0.4869	9.7005
0.9111	0.7956	9.5994
0.9033	0.7944	9.4097
1.1073	0.6520	9.4839
1.0863	0.6407	9.6801
0.9703	0.8632	9.5916
0.8871	0.9105	9.5952
0.8596	0.6963	9.4684
0.9571	0.5617	9.6125
0.8560	0.5174	9.6520
1.2161	0.8949	9.4791
1.0217	0.7394	9.4803
1.1270	0.5856	9.5096
1.0421	0.5826	9.7340
0.8363	0.6903	9.6855
0.7699	0.7352	9.5132
0.7651	0.5204	9.3649
1.0026	0.6634	9.5210
0.9350	0.5874	9.6879
1.1204	0.9326	9.5084
0.9876	0.7382	9.5605
0.9517	0.5970	9.5072
0.9679	0.8088	9.6006
0.7555	0.6933	9.7256
0.9793	0.8536	9.4546
0.9302	0.4678	9.6149
1.0522	0.5168	9.5001
1.0331	0.7549	9.5533
0.8453	0.7095	9.6556
0.9685	0.7687	9.4139
0.7765	0.3607	9.7405
0.9218	0.7155	9.5383
0.8387	0.7807	9.5677
1.0056	0.7998	9.5312
1.1408	0.8339	9.4043
1.1127	0.5192	9.6394
1.1527	0.9470	9.5952
0.8548	0.8847	9.6012
0.8704	0.8171	9.5204
0.8734	0.5527	9.4971
0.9763	0.4702	9.5760
0.9577	0.7190	9.5312
0.9894	0.8237	9.4917
0.9709	0.6556	9.5730
0.8901	0.4810	9.5778
0.9063	0.5743	9.6622
0.7250	0.7597	9.5832
0.8889	0.8919	9.4378
0.9583	0.7059	9.5353
1.1115	0.7489	9.5126
1.2185	0.7675	9.6012
0.7902	0.7926	9.6556
0.9248	0.9320	9.4528
0.7507	0.5509	9.5706
0.8572	0.4319	9.5359
0.9547	0.5647	9.5826
0.9081	0.6323	9.6209
1.0492	0.8752	9.4546
1.0146	0.5779	9.4564
1.0875	0.6622	9.6006
0.9314	0.6963	9.6753
0.9182	0.7424	9.6101
0.8423	0.8608	9.5042
0.9164	0.5468	9.4845
1.0935	0.6855	9.5724
0.9996	0.6778	9.6352
1.0439	0.7280	9.6179
0.8058	0.8219	9.5694
0.8124	0.5384	9.5120
0.7866	0.6766	9.5276
0.8835	0.6790	9.6346
1.1031	0.7472	9.5521
1.0295	0.8046	9.5078
1.0516	0.6042	9.4612
0.9972	0.7340	9.5940
0.8770	0.7131	9.6341
0.9517	0.7448	9.6478
0.7495	0.6431	9.6436
0.9212	0.5916	9.4510
0.9763	0.6479	9.4947
0.9960	0.6634	9.5706
1.1294	0.8255	9.5724
0.7842	0.7657	9.6496
0.9625	0.6353	9.5647
0.8973	0.7202	9.5401
0.8931	0.5719	9.5623
1.0792	0.7376	9.5264
0.7813	0.6778	9.5850
1.0534	0.6287	9.5575
0.9015	0.7232	9.5389
0.8488	0.5557	9.5946
0.9476	0.6963	9.5874
0.8165	0.6784	9.6041
0.9888	0.6670	9.5377
0.9840	0.7573	9.5706
1.0056	0.6114	9.5300
1.1527	0.7651	9.5521
0.9129	0.7095	9.6263
0.9535	0.6814	9.5694
0.7908	0.7699	9.6119
0.8100	0.5037	9.5886
0.9727	0.6814	9.5060
0.9691	0.6526	9.5677
1.0816	0.6293	9.5497
0.9434	0.8477	9.5401
0.8572	0.6712	9.6101
0.9314	0.7687	9.5694
0.9452	0.7178	9.6107
1.0373	0.5713	9.5611
0.9966	0.7352	9.5419
0.8949	0.5791	9.5706
0.9625	0.6802	9.5252
0.9158	0.8082	9.5389
1.0259	0.5641	9.6149
1.0600	0.7268	9.6197
0.9087	0.6688	9.5557
0.9679	0.5647	9.6017
0.7866	0.7759	9.5563
0.8536	0.5797	9.5288
1.0307	0.7286	9.5677
1.0128	0.7280	9.5802
1.0498	0.6496	9.5581
0.8883	0.7860	9.5635
0.8094	0.6562	9.5904
0.9769	0.6903	9.5282
0.9966	0.7986	9.5551
1.0857	0.6000	9.5700
1.0780	0.7555	9.4977
0.9523	0.7107	9.5204
0.8740	0.5515	9.6083
0.8435	0.7160	9.5892
0.8459	0.4965	9.5832
1.0044	0.5803	9.5617
0.9858	0.7442	9.5431
0.9793	0.6664	9.5581
0.9846	0.8070	9.5204
0.9338	0.7663	9.5599
0.9601	0.5940	9.6448
0.9404	0.7777	9.5575
0.9619	0.6796	9.5617
0.9828	0.5761	9.6095
0.9296	0.7196	9.4923
0.9135	0.6520	9.5539
1.0403	0.6843	9.6125
0.9410	0.7501	9.5593
0.9529	0.6251	9.6185
0.9721	0.7137	9.5778
0.8895	0.7460	9.5342
0.9583	0.5384	9.6215
0.9757	0.7412	9.5515
0.9834	0.7226	9.5228
0.9978	0.6317	9.5724
0.9625	0.7944	9.5365
0.8979	0.6245	9.5653
0.9458	0.7352	9.6478
0.9314	0.6778	9.5575
0.9027	0.6203	9.5766
1.0128	0.6437	9.5766
0.9595	0.7944	9.5180
1.0247	0.6927	9.5288
1.0618	0.7711	9.6550
0.9320	0.7537	9.5814
0.9266	0.6335	9.5982
0.8512	0.6616	9.6502
0.8285	0.6365	9.4983
0.9057	0.6520	9.5677
0.9948	0.6975	9.6012
1.0277	0.7448	9.4809
1.0648	0.7346	9.6257
0.9571	0.6891	9.6317
0.9278	0.7657	9.4695
0.8955	0.6646	9.6508
0.9039	0.4642	9.5635
0.9715	0.7298	9.4372
1.0403	0.7382	9.5371
1.0247	0.6664	9.6113
0.9571	0.7280	9.5593
0.9200	0.7208	9.6000
0.8500	0.6299	9.6813
0.8309	0.6299	9.5503
0.8818	0.6963	9.5126
1.0397	0.6233	9.5533
1.0385	0.7059	9.4761
1.0630	0.7160	9.5126
1.0534	0.7250	9.5760
0.9410	0.7992	9.6006
0.8985	0.6682	9.5671
0.8536	0.6849	9.6131
0.9517	0.6323	9.5210
0.9553	0.6760	9.5437
0.9679	0.6443	9.5383
1.0008	0.6640	9.5557
0.8961	0.7346	9.5718
0.8991	0.7448	9.6006
0.8991	0.7005	9.6305
0.9446	0.6879	9.5694
1.0056	0.7208	9.5252
1.0552	0.6796	9.5515
1.0373	0.6401	9.5342
0.9805	0.6873	9.5347
0.7705	0.7160	9.5563
0.8668	0.6831	9.5982
0.8985	0.6568	9.5886
0.8907	0.6622	9.5886
0.9517	0.7196	9.5336
1.0008	0.6939	9.5359
0.9924	0.6688	9.5814
0.9912	0.6903	9.5449
0.9547	0.7352	9.5605
0.9356	0.7322	9.5730
0.9242	0.6610	9.5982
0.9320	0.6496	9.5700
0.9188	0.6622	9.5401
0.9296	0.7077	9.5443
0.9673	0.6479	9.5497
0.9709	0.6473	9.5808
0.9661	0.6879	9.5688
0.9434	0.7388	9.5419
0.9703	0.7448	9.5671
0.9924	0.6676	9.5784
0.9577	0.6975	9.5850
0.9254	0.6957	9.5563
0.9129	0.6873	9.5467
0.9380	0.6646	9.5617
0.9332	0.5952	9.5832
0.9595	0.6820	9.5814
0.9607	0.7071	9.5252
0.9775	0.7101	9.5599
0.9936	0.7125	9.5677
0.9972	0.6825	9.5724
0.9476	0.7041	9.5910
0.9308	0.7190	9.5347
0.9069	0.6820	9.5694
0.9356	0.6742	9.5748
0.9535	0.6538	9.5677
0.9452	0.6981	9.5682
0.9733	0.7059	9.5449
0.9476	0.6778	9.5665
0.9709	0.6754	9.5647
0.9703	0.6891	9.5742
0.9559	0.6831	9.5694
0.9781	0.7065	9.5455
0.9487	0.6514	9.5790
0.9505	0.7083	9.5515
0.9482	0.7202	9.5706
0.9440	0.6520	9.5982
0.9529	0.7023	9.5533
0.9541	0.6808	9.5581
0.9368	0.6682	9.5694
0.9434	0.7310	9.5389
0.9709	0.6748	9.5742
0.9577	0.6999	9.5994
0.9661	0.7035	9.5611
0.9505	0.6784	9.5964
0.9392	0.6987	9.5551
0.9565	0.6915	9.5240
0.9553	0.6514	9.5802
0.9655	0.6724	9.5545
0.9882	0.6610	9.5377
0.9404	0.6748	9.5874
0.9452	0.7065	9.5533
0.9320	0.7095	9.5677
0.9547	0.7107	9.5898
0.9613	0.7083	9.5623
0.9864	0.6903	9.5742
0.9619	0.6616	9.5868
0.9332	0.6814	9.5467
0.9284	0.6760	9.5700
0.9206	0.6544	9.5946
0.9404	0.6760	9.5395
0.9769	0.6820	9.5653
0.9721	0.6802	9.5772
0.9822	0.7400	9.5587
0.9691	0.7119	9.5844
0.9356	0.7172	9.6006
0.9398	0.7155	9.5479
0.9535	0.6879	9.5629
0.9464	0.6473	9.5724
0.9529	0.6508	9.5419
0.9416	0.6646	9.5856
0.9278	0.6658	9.5886
0.9559	0.6945	9.5395
0.9745	0.6927	9.5647
1.0062	0.6718	9.5748
1.0044	0.7226	9.5533
0.9906	0.6975	9.5784
0.9541	0.6957	9.5988
0.9344	0.6969	9.5653
0.9135	0.6796	9.5832
0.9242	0.6724	9.5671
0.9553	0.6712	9.5449
0.9452	0.6736	9.5665
0.9691	0.6933	9.5557
0.9667	0.6999	9.5503
0.9643	0.7005	9.5766
0.9523	0.7101	9.5479
0.9703	0.7113	9.5623
0.9529	0.6664	9.5772
0.9649	0.6778	9.5461
0.9667	0.6694	9.5766
0.9476	0.6622	9.5904
0.9565	0.6808	9.5599
0.9446	0.7047	9.5682
0.9386	0.7017	9.5665
0.9655	0.7059	9.5539
0.9643	0.6855	9.5736
0.9440	0.6843	9.5665
0.9404	0.6849	9.5629
0.9308	0.6622	9.5916
0.9326	0.6724	9.5802
0.9410	0.6784	9.5569
0.9583	0.7011	9.5682
0.9655	0.6927	9.5593
0.9733	0.6969	9.5503
0.9511	0.6766	9.5814
0.9523	0.6999	9.5682
0.9583	0.6867	9.5635
0.9523	0.6622	9.5736
0.9577	0.6748	9.5635
0.9571	0.6855	9.5671
0.9392	0.6951	9.5682
0.9499	0.6885	9.5629
0.9386	0.6891	9.5617
0.9458	0.6855	9.5629
0.9583	0.6820	9.5611
0.9613	0.6778	9.5653
0.9464	0.6849	9.5778
0.9727	0.7065	9.5671
0.9727	0.6879	9.5682
0.9661	0.6891	9.5790
0.9607	0.6945	9.5617
0.9709	0.6933	9.5700
0.9553	0.6694	9.5712
0.9667	0.6766	9.5617
0.9499	0.6694	9.5778
0.9541	0.6784	9.5671
0.9577	0.6855	9.5641
0.9464	0.6945	9.5677
0.9470	0.7113	9.5629
0.9517	0.7125	9.5700
0.9452	0.6993	9.5796
0.9541	0.7053	9.5497
0.9356	0.6825	9.5665
0.9380	0.6724	9.5766
0.9541	0.6837	9.5593
0.9482	0.6700	9.5742
0.9547	0.6897	9.5688
0.9721	0.6909	9.5605
0.9870	0.6897	9.5665
0.9721	0.7011	9.5694
0.9661	0.6772	9.5605
0.9685	0.6903	9.5599
0.9332	0.6730	9.5659
0.9476	0.6808	9.5575
0.9392	0.6748	9.5671
0.9392	0.6718	9.5700
0.9607	0.6939	9.5503
0.9529	0.6939	9.5593
0.9517	0.7107	9.5665
0.9499	0.6921	9.5515
0.9601	0.6891	9.5754
0.9392	0.7035	9.5629
0.9446	0.6849	9.5605
0.9320	0.6724	9.5808
0.9499	0.6831	9.5593
0.9380	0.6784	9.5623
0.9571	0.6909	9.5694
0.9685	0.6784	9.5635
0.9655	0.6933	9.5623
0.9715	0.7059	9.5605
0.9583	0.7035	9.5665
0.9643	0.6712	9.5700
0.9470	0.6831	9.5677
0.9547	0.6873	9.5593
0.9458	0.6754	9.5688
0.9523	0.6580	9.5623
0.9619	0.6814	9.5641
0.9464	0.6843	9.5635
0.9559	0.7029	9.5641
0.9541	0.6903	9.5659
0.9505	0.7005	9.5629
0.9505	0.7029	9.5742
0.9434	0.6933	9.5617
0.9637	0.6855	9.5682
0.9505	0.6724	9.5641
0.9607	0.6825	9.5653
0.9464	0.6772	9.5682
0.9655	0.6820	9.5700
0.9613	0.6825	9.5700
0.9667	0.6909	9.5730
0.9709	0.6867	9.5629
0.9709	0.6903	9.5712
0.9619	0.6969	9.5647
0.9553	0.6963	9.5688
0.9673	0.6855	9.5605
0.9416	0.6867	9.5760
0.9589	0.6891	9.5491
0.9356	0.6843	9.5742
0.9529	0.6688	9.5515
0.9440	0.6891	9.5682
0.9613	0.6694	9.5700
0.9589	0.6897	9.5748
0.9577	0.6790	9.5569
0.9691	0.6939	9.5659
0.9493	0.6831	9.5736
0.9619	0.7023	9.5617
0.9464	0.6778	9.5712
0.9547	0.6909	9.5533
0.9434	0.6748	9.5766
0.9505	0.6814	9.5694
0.9440	0.6837	9.5641
0.9565	0.6837	9.5659
0.9505	0.7005	9.5718
0.9493	0.6748	9.5665
0.9763	0.6951	9.5503
0.9535	0.6754	9.5760
0.9715	0.6802	9.5533
0.9464	0.6694	9.5742
0.9607	0.6808	9.5647
0.9482	0.6969	9.5623
0.9482	0.6760	9.5820
0.9655	0.6975	9.5581
0.9260	0.6897	9.5730
0.9805	0.7196	9.5461
0.9111	0.6993	9.5862
0.9852	0.6766	9.5605
0.9374	0.7137	9.5659
0.9589	0.6550	9.5802
0.9661	0.7077	9.5401
0.9338	0.6604	9.5922
0.9805	0.6897	9.5533
0.9386	0.6891	9.5694
0.9757	0.6640	9.5754
0.9607	0.7208	9.5533
0.9511	0.6592	9.5856
0.9709	0.7059	9.5635
0.9476	0.6945	9.5665
0.9487	0.6766	9.5682
0.9517	0.6993	9.5599
0.9332	0.6867	9.5772
0.9499	0.6945	9.5605
0.9541	0.6963	9.5521
0.9499	0.6706	9.5868
0.9637	0.6927	9.5593
0.9529	0.6897	9.5748
0.9499	0.6808	9.5844
0.9541	0.6993	9.5491
0.9511	0.6700	9.5712
0.9529	0.6939	9.5659
0.9487	0.6957	9.5563
0.9440	0.6724	9.5748
0.9595	0.6999	9.5623
0.9482	0.6784	9.5539
0.9613	0.6891	9.5706
0.9613	0.6885	9.5665
0.9631	0.6825	9.5533
0.9625	0.6796	9.5682
0.9487	0.6820	9.5700
0.9619	0.6784	9.5539
0.9523	0.6843	9.5688
0.9458	0.6843	9.5635
0.9541	0.6837	9.5635
0.9434	0.6837	9.5760
0.9523	0.6957	9.5569
0.9476	0.6945	9.5730
0.9577	0.6873	9.5688
0.9482	0.6975	9.5623
0.9655	0.6843	9.5563
0.9511	0.6867	9.5754
0.9619	0.6885	9.5521
0.9679	0.6957	9.5557
0.9649	0.6640	9.5922
0.9571	0.6903	9.5682
0.9541	0.6993	9.5605
0.9541	0.6760	9.5754
0.9613	0.6820	9.5748
0.9577	0.6873	9.5766
0.9571	0.6957	9.5629
0.9493	0.6879	9.5635
0.9619	0.6933	9.5724
0.9547	0.7029	9.5694
0.9649	0.6688	9.5623
0.9541	0.6921	9.5682
0.9559	0.6981	9.5677
0.9649	0.6849	9.5551
0.9625	0.6658	9.5682
0.9613	0.6814	9.5694
0.9541	0.7077	9.5461
0.9661	0.6921	9.5647
0.9487	0.6598	9.5730
0.9691	0.7023	9.5491
0.9511	0.7041	9.5736
0.9493	0.6879	9.5641
0.9637	0.6766	9.5533
0.9440	0.6808	9.5790
0.9553	0.7101	9.5485
0.9452	0.6885	9.5659
0.9601	0.6700	9.5724
0.9446	0.6999	9.5575
0.9649	0.6939	9.5593
0.9440	0.6820	9.5802
0.9553	0.6748	9.5521
0.9416	0.7017	9.5700
0.9398	0.6939	9.5778
0.9607	0.6867	9.5647
0.9517	0.6825	9.5772
0.9613	0.6867	9.5629
0.9517	0.7041	9.5706
0.9637	0.6766	9.5742
0.9553	0.6963	9.5653
0.9589	0.6790	9.5665
0.9661	0.6915	9.5641
0.9482	0.6843	9.5718
0.9643	0.6820	9.5545
0.9523	0.6915	9.5766
0.9338	0.6772	9.5647
0.9547	0.6939	9.5509
0.9428	0.6939	9.5748
0.9476	0.6825	9.5545
0.9547	0.6939	9.5557
0.9356	0.6873	9.5766
0.9535	0.6879	9.5407
0.9517	0.6790	9.5599
0.9589	0.6808	9.5808
0.9577	0.6975	9.5539
0.9661	0.6790	9.5653
0.9535	0.6754	9.5814
0.9643	0.6903	9.5521
0.9595	0.6867	9.5629
0.9649	0.6766	9.5838
0.9482	0.6843	9.5611
0.9470	0.6951	9.5581
0.9535	0.6855	9.5808
0.9559	0.6843	9.5665
0.9679	0.6879	9.5557
0.9523	0.6796	9.5814
0.9607	0.6963	9.5479
0.9493	0.6969	9.5551
0.9452	0.6802	9.5826
0.9589	0.6885	9.5545
0.9541	0.6867	9.5581
0.9655	0.6778	9.5718
0.9553	0.6825	9.5569
0.9577	0.6849	9.5623
0.9499	0.6939	9.5712
0.9517	0.6957	9.5617
0.9529	0.6808	9.5653
0.9667	0.6825	9.5682
0.9613	0.6873	9.5682
0.9589	0.6873	9.5641
0.9559	0.6855	9.5635
0.9643	0.6814	9.5790
0.9637	0.6855	9.5623
0.9505	0.6825	9.5587
0.9571	0.6861	9.5682
0.9523	0.6849	9.5665
0.9487	0.6855	9.5647
0.9535	0.6933	9.5599
0.9523	0.6736	9.5712
0.9553	0.6933	9.5593
0.9655	0.6933	9.5611
0.9404	0.6736	9.5760
0.9493	0.6921	9.5419
0.9505	0.6939	9.5623
0.9511	0.6814	9.5772
0.9577	0.6843	9.5509
0.9577	0.6778	9.5581
0.9583	0.6855	9.5671
0.9613	0.6855	9.5581
0.9577	0.6718	9.5706
0.9547	0.6808	9.5706
0.9619	0.6933	9.5581
0.9541	0.6885	9.5706
0.9577	0.6837	9.5736
0.9577	0.6825	9.5605
0.9571	0.6921	9.5659
0.9535	0.6945	9.5778
0.9523	0.6849	9.5653
0.9553	0.6849	9.5635
0.9529	0.6909	9.5712
0.9559	0.6915	9.5641
0.9535	0.6885	9.5629
0.9529	0.6843	9.5647
0.9565	0.6867	9.5641
0.9541	0.6897	9.5647
0.9565	0.6879	9.5694
0.9583	0.6867	9.5653
0.9607	0.6873	9.5587
0.9553	0.6885	9.5682
0.9553	0.6891	9.5677
0.9577	0.6879	9.5509
0.9619	0.6873	9.5587
0.9577	0.6820	9.5712
0.9529	0.6820	9.5533
0.9577	0.6849	9.5521
0.9547	0.6831	9.5736
0.9505	0.6825	9.5605
0.9541	0.6909	9.5503
0.9523	0.6891	9.5718
0.9499	0.6843	9.5623
0.9541	0.6909	9.5587
0.9517	0.6897	9.5772
0.9470	0.6843	9.5659
0.9499	0.6861	9.5635
0.9464	0.6825	9.5766
0.9517	0.6915	9.5611
0.9577	0.6891	9.5581
0.9535	0.6748	9.5754
0.9571	0.6814	9.5677
0.9577	0.6897	9.5539
0.9595	0.6814	9.5682
0.9655	0.6730	9.5742
0.9613	0.6814	9.5635
0.9595	0.6927	9.5635
0.9631	0.6885	9.5724
0.9589	0.6843	9.5700
0.9571	0.6843	9.5635
0.9523	0.6933	9.5694
0.9517	0.6921	9.5659
0.9535	0.6861	9.5706
0.9458	0.6837	9.5706
0.9428	0.6909	9.5635
0.9440	0.6957	9.5605
0.9487	0.6897	9.5730
0.9487	0.6855	9.5694
0.9529	0.6867	9.5611
0.9553	0.6891	9.5665
0.9601	0.6879	9.5665
0.9631	0.6802	9.5605
0.9619	0.6754	9.5659
0.9595	0.6808	9.5617
0.9619	0.6909	9.5605
0.9637	0.6808	9.5688
0.9667	0.6742	9.5647
0.9655	0.6814	9.5587
0.9589	0.6909	9.5641
0.9541	0.6873	9.5688
0.9517	0.6831	9.5623
0.9470	0.6891	9.5706
0.9428	0.6921	9.5677
0.9458	0.7023	9.5569
0.9434	0.6861	9.5671
0.9416	0.6849	9.5688
0.9404	0.6903	9.5557
0.9440	0.6891	9.5677
0.9493	0.6867	9.5659
0.9517	0.6796	9.5629
0.9565	0.6820	9.5599
0.9595	0.6885	9.5635
0.9595	0.6843	9.5659
0.9667	0.6808	9.5599
0.9673	0.6784	9.5682
0.9637	0.6843	9.5659
0.9661	0.6867	9.5551
0.9643	0.6760	9.5742
0.9571	0.6849	9.5724
0.9541	0.6885	9.5581
0.9505	0.6909	9.5760
0.9511	0.6879	9.5724
0.9505	0.6861	9.5659
0.9517	0.6897	9.5694
0.9428	0.6939	9.5694
0.9392	0.6933	9.5647
0.9422	0.6951	9.5641
0.9446	0.6855	9.5724
0.9487	0.6879	9.5647
0.9541	0.6897	9.5623
0.9535	0.6814	9.5748
0.9559	0.6855	9.5671
0.9565	0.6831	9.5653
0.9559	0.6808	9.5742
0.9655	0.6861	9.5653
0.9667	0.6784	9.5682
0.9625	0.6730	9.5736
0.9637	0.6831	9.5629
0.9577	0.6843	9.5647
0.9565	0.6820	9.5694
0.9589	0.6790	9.5671
0.9571	0.6820	9.5671
0.9577	0.6879	9.5677
0.9565	0.6909	9.5724
0.9511	0.6891	9.5730
0.9487	0.6909	9.5706
0.9493	0.6951	9.5742
0.9499	0.6945	9.5730
0.9511	0.6885	9.5694
0.9535	0.6855	9.5712
0.9541	0.6891	9.5659
0.9565	0.6897	9.5653
0.9625	0.6867	9.5688
0.9631	0.6814	9.5659
0.9637	0.6790	9.5617
0.9607	0.6820	9.5671
0.9595	0.6843	9.5647
0.9607	0.6825	9.5623
0.9589	0.6808	9.5641
0.9583	0.6843	9.5593
0.9589	0.6891	9.5557
0.9583	0.6867	9.5635
0.9559	0.6814	9.5635
0.9559	0.6831	9.5587
0.9535	0.6879	9.5641
0.9529	0.6903	9.5629
0.9541	0.6867	9.5593
0.9505	0.6843	9.5653
0.9482	0.6921	9.5665
0.9487	0.6951	9.5647
0.9517	0.6885	9.5694
0.9505	0.6849	9.5700
0.9535	0.6885	9.5623
0.9577	0.6897	9.5706
0.9607	0.6891	9.5718
0.9625	0.6843	9.5647
0.9637	0.6808	9.5665
0.9637	0.6849	9.5682
0.9625	0.6861	9.5659
0.9613	0.6814	9.5688
0.9577	0.6784	9.5688
0.9529	0.6831	9.5647
0.9523	0.6867	9.5665
0.9523	0.6885	9.5736
0.9482	0.6849	9.5688
0.9458	0.6855	9.5641
0.9452	0.6903	9.5677
0.9458	0.6903	9.5694
0.9487	0.6837	9.5659
0.9499	0.6825	9.5665
0.9493	0.6879	9.5653
0.9505	0.6903	9.5617
0.9553	0.6867	9.5688
0.9571	0.6820	9.5694
0.9595	0.6837	9.5623
0.9619	0.6861	9.5629
0.9625	0.6843	9.5653
0.9637	0.6814	9.5605
0.9619	0.6820	9.5617
0.9613	0.6879	9.5623
0.9607	0.6867	9.5611
0.9595	0.6825	9.5677
0.9577	0.6820	9.5694
0.9559	0.6861	9.5677
0.9553	0.6873	9.5688
0.9535	0.6855	9.5742
0.9517	0.6837	9.5677
0.9493	0.6873	9.5647
0.9499	0.6921	9.5677
0.9487	0.6915	9.5665
0.9482	0.6897	9.5682
0.9493	0.6903	9.5682
0.9493	0.6927	9.5647
0.9541	0.6897	9.5635
0.9559	0.6855	9.5641
0.9565	0.6831	9.5617
0.9541	0.6849	9.5593
0.9553	0.6867	9.5587
0.9583	0.6843	9.5581
0.9631	0.6808	9.5563
0.9631	0.6820	9.5611
0.9613	0.6820	9.5623
0.9619	0.6808	9.5641
0.9613	0.6814	9.5647
0.9547	0.6825	9.5641
0.9505	0.6855	9.5629
0.9493	0.6873	9.5647
0.9464	0.6873	9.5665
0.9446	0.6873	9.5635
0.9422	0.6915	9.5635
0.9434	0.6915	9.5688
0.9446	0.6873	9.5671
0.9452	0.6861	9.5641
0.9446	0.6867	9.5653
0.9458	0.6867	9.5629
0.9482	0.6843	9.5617
0.9529	0.6831	9.5641
0.9547	0.6825	9.5623
0.9559	0.6831	9.5611
0.9577	0.6825	9.5629
0.9595	0.6820	9.5617
0.9607	0.6831	9.5635
0.9619	0.6849	9.5635
0.9607	0.6855	9.5641
0.9577	0.6831	9.5659
0.9553	0.6843	9.5677
0.9523	0.6867	9.5688
0.9499	0.6867	9.5700
0.9511	0.6873	9.5712
0.9505	0.6891	9.5712
0.9482	0.6915	9.5671
0.9470	0.6921	9.5677
0.9464	0.6909	9.5665
0.9482	0.6885	9.5665
0.9505	0.6891	9.5665
0.9523	0.6891	9.5659
0.9559	0.6873	9.5688
0.9589	0.6873	9.5688
0.9589	0.6849	9.5659
0.9601	0.6837	9.5635
0.9613	0.6849	9.5617
0.9619	0.6843	9.5629
0.9613	0.6814	9.5635
0.9601	0.6837	9.5617
0.9559	0.6849	9.5611
0.9535	0.6849	9.5629
0.9529	0.6849	9.5611
0.9511	0.6861	9.5605
0.9493	0.6873	9.5605
0.9482	0.6873	9.5599
0.9482	0.6867	9.5635
0.9505	0.6843	9.5659
0.9517	0.6855	9.5659
0.9517	0.6861	9.5665
0.9529	0.6879	9.5653
0.9547	0.6879	9.5629
0.9553	0.6861	9.5635
0.9553	0.6861	9.5629
0.9559	0.6861	9.5623
0.9571	0.6855	9.5629
0.9589	0.6831	9.5629
0.9607	0.6820	9.5617
0.9607	0.6825	9.5611
0.9595	0.6831	9.5599
0.9601	0.6831	9.5605
0.9613	0.6837	9.5611
0.9607	0.6843	9.5611
0.9589	0.6843	9.5611
0.9577	0.6837	9.5635
0.9565	0.6849	9.5641
0.9535	0.6867	9.5659
0.9517	0.6879	9.5665
0.9493	0.6879	9.5671
0.9476	0.6879	9.5671
0.9482	0.6897	9.5677
0.9482	0.6897	9.5682
0.9511	0.6873	9.5700
0.9553	0.6867	9.5694
0.9571	0.6849	9.5677
0.9571	0.6837	9.5671
0.9559	0.6825	9.5659
0.9535	0.6808	9.5647
0.9559	0.6820	9.5635
0.9571	0.6831	9.5617
0.9583	0.6831	9.5629
0.9583	0.6831	9.5641
0.9565	0.6831	9.5635
0.9547	0.6849	9.5653
0.9541	0.6855	9.5671
0.9541	0.6855	9.5688
0.9529	0.6867	9.5671
0.9517	0.6879	9.5647
0.9511	0.6879	9.5641
0.9499	0.6897	9.5647
0.9523	0.6897	9.5671
0.9535	0.6915	9.5682
0.9517	0.6897	9.5724
0.9535	0.6879	9.5718
0.9547	0.6879	9.5712
0.9571	0.6873	9.5742
0.9595	0.6873	9.5730
0.9595	0.6861	9.5724
0.9625	0.6855	9.5724
0.9631	0.6849	9.5700
0.9643	0.6855	9.5682
0.9649	0.6861	9.5700
0.9625	0.6855	9.5700
0.9595	0.6843	9.5694
0.9559	0.6861	9.5700
0.9529	0.6885	9.5700
0.9517	0.6879	9.5688
0.9511	0.6867	9.5677
0.9535	0.6885	9.5647
0.9523	0.6897	9.5635
0.9499	0.6921	9.5623
0.9487	0.6927	9.5611
0.9505	0.6921	9.5611
0.9529	0.6915	9.5623
0.9565	0.6915	9.5617
0.9589	0.6873	9.5635
0.9589	0.6855	9.5641
0.9589	0.6843	9.5623
0.9589	0.6831	9.5617
0.9595	0.6825	9.5611
0.9583	0.6831	9.5599
0.9559	0.6849	9.5611
0.9565	0.6849	9.5623
0.9577	0.6849	9.5653
0.9565	0.6855	9.5647
0.9553	0.6855	9.5647
0.9553	0.6849	9.5641
0.9553	0.6843	9.5641
0.9559	0.6855	9.5682
0.9559	0.6861	9.5694
0.9559	0.6861	9.5694
0.9577	0.6867	9.5682
0.9559	0.6879	9.5677
0.9535	0.6879	9.5665
0.9571	0.6879	9.5682
0.9589	0.6879	9.5700
0.9589	0.6885	9.5677
0.9583	0.6873	9.5671
0.9559	0.6867	9.5659
0.9571	0.6873	9.5653
0.9601	0.6873	9.5647
0.9619	0.6861	9.5665
0.9613	0.6861	9.5659
0.9595	0.6849	9.5653
0.9571	0.6849	9.5665
0.9559	0.6855	9.5682
0.9541	0.6861	9.5665
0.9523	0.6873	9.5641
0.9493	0.6873	9.5617
0.9499	0.6873	9.5617
0.9493	0.6885	9.5647
0.9487	0.6891	9.5635
0.9470	0.6885	9.5617
0.9482	0.6885	9.5605
0.9505	0.6861	9.5611
0.9517	0.6861	9.5647
0.9541	0.6867	9.5653
0.9529	0.6873	9.5623
0.9517	0.6861	9.5617
0.9523	0.6849	9.5623
0.9535	0.6849	9.5629
0.9547	0.6849	9.5629
0.9541	0.6855	9.5617
0.9553	0.6843	9.5605
0.9559	0.6837	9.5629
0.9559	0.6855	9.5659
0.9571	0.6873	9.5665
0.9547	0.6903	9.5647
0.9523	0.6915	9.5641
0.9517	0.6903	9.5671
0.9523	0.6885	9.5712
0.9511	0.6879	9.5706
0.9505	0.6897	9.5682
0.9499	0.6897	9.5665
0.9493	0.6903	9.5659
0.9499	0.6903	9.5647
0.9499	0.6885	9.5641
0.9499	0.6891	9.5641
0.9511	0.6891	9.5635
0.9535	0.6873	9.5629
0.9541	0.6867	9.5647
0.9571	0.6867	9.5635
0.9577	0.6867	9.5617
0.9601	0.6843	9.5629
0.9613	0.6831	9.5623
0.9613	0.6820	9.5647
0.9613	0.6820	9.5641
0.9601	0.6825	9.5611
0.9571	0.6837	9.5611
0.9565	0.6849	9.5611
0.9577	0.6861	9.5611
0.9577	0.6861	9.5629
0.9559	0.6873	9.5617
0.9541	0.6861	9.5605
0.9529	0.6873	9.5599
0.9547	0.6891	9.5629
0.9565	0.6897	9.5665
0.9589	0.6891	9.5659
0.9589	0.6891	9.5665
0.9571	0.6879	9.5659
0.9571	0.6879	9.5677
0.9577	0.6873	9.5653
0.9583	0.6873	9.5641
0.9565	0.6873	9.5623
0.9559	0.6873	9.5611
0.9559	0.6867	9.5623
0.9565	0.6867	9.5641
0.9589	0.6873	9.5635
0.9571	0.6879	9.5617
0.9565	0.6873	9.5617
0.9559	0.6873	9.5611
0.9535	0.6873	9.5617
0.9529	0.6873	9.5629
0.9517	0.6891	9.5617
0.9529	0.6885	9.5647
0.9523	0.6891	9.5665
0.9541	0.6891	9.5682
0.9535	0.6885	9.5671
0.9529	0.6897	9.5671
0.9529	0.6891	9.5659
0.9553	0.6885	9.5665
0.9559	0.6903	9.5653
0.9577	0.6873	9.5653
0.9589	0.6855	9.5641
0.9601	0.6861	9.5611
0.9601	0.6873	9.5605
0.9589	0.6891	9.5611
0.9589	0.6885	9.5611
0.9589	0.6873	9.5623
0.9589	0.6861	9.5629
0.9553	0.6855	9.5641
0.9529	0.6837	9.5665
0.9511	0.6855	9.5665
0.9511	0.6867	9.5659
0.9499	0.6879	9.5665
0.9493	0.6885	9.5659
0.9499	0.6885	9.5635
0.9493	0.6879	9.5623
0.9505	0.6873	9.5617
0.9505	0.6861	9.5605
0.9517	0.6861	9.5623
0.9529	0.6855	9.5647
0.9541	0.6849	9.5617
0.9541	0.6855	9.5617
0.9517	0.6873	9.5617
0.9517	0.6861	9.5611
0.9523	0.6849	9.5623
0.9535	0.6837	9.5629
0.9535	0.6831	9.5641
0.9541	0.6849	9.5653
0.9565	0.6855	9.5647
0.9577	0.6861	9.5647
0.9577	0.6867	9.5665
0.9571	0.6867	9.5653
0.9553	0.6855	9.5641
0.9559	0.6861	9.5635
0.9553	0.6855	9.5629
0.9535	0.6843	9.5635
0.9547	0.6843	9.5647
0.9535	0.6837	9.5653
0.9529	0.6825	9.5647
0.9559	0.6825	9.5629
0.9541	0.6820	9.5605
0.9529	0.6820	9.5605
0.9523	0.6802	9.5623
0.9517	0.6814	9.5617
0.9541	0.6831	9.5617
0.9553	0.6831	9.5605
0.9571	0.6825	9.5617
0.9583	0.6837	9.5629
0.9589	0.6849	9.5653
0.9583	0.6843	9.5671
0.9559	0.6849	9.5653
0.9535	0.6855	9.5653
0.9523	0.6861	9.5653
0.9529	0.6873	9.5653
0.9511	0.6873	9.5653
0.9517	0.6855	9.5671
0.9523	0.6861	9.5671
0.9517	0.6855	9.5653
0.9493	0.6843	9.5653
0.9499	0.6843	9.5653
0.9517	0.6849	9.5635
0.9541	0.6849	9.5641
0.9589	0.6831	9.5665
0.9589	0.6825	9.5671
0.9577	0.6820	9.5694
0.9577	0.6825	9.5700
0.9577	0.6825	9.5677
0.9565	0.6837	9.5671
0.9583	0.6861	9.5671
0.9583	0.6873	9.5677
0.9577	0.6867	9.5671
0.9595	0.6861	9.5665
0.9601	0.6861	9.5677
0.9571	0.6873	9.5659
0.9553	0.6873	9.5659
0.9559	0.6873	9.5677
0.9541	0.6885	9.5706
0.9553	0.6897	9.5700
0.9547	0.6897	9.5682
0.9541	0.6885	9.5665
0.9559	0.6873	9.5665
0.9571	0.6861	9.5665
0.9571	0.6849	9.5688
0.9571	0.6855	9.5677
0.9571	0.6843	9.5665
0.9571	0.6855	9.5671
0.9571	0.6861	9.5665
0.9589	0.6861	9.5647
0.9595	0.6867	9.5653
0.9589	0.6867	9.5659
0.9577	0.6867	9.5647
0.9565	0.6873	9.5653
0.9553	0.6867	9.5653
0.9535	0.6849	9.5671
0.9517	0.6861	9.5700
0.9547	0.6855	9.5694
0.9547	0.6855	9.5694
0.9535	0.6873	9.5688
0.9529	0.6897	9.5665
0.9553	0.6903	9.5647
0.9565	0.6909	9.5659
0.9571	0.6903	9.5659
0.9559	0.6897	9.5665
0.9553	0.6885	9.5677
0.9565	0.6885	9.5677
0.9565	0.6867	9.5677
0.9577	0.6855	9.5671
0.9595	0.6861	9.5647
0.9577	0.6843	9.5653
0.9559	0.6837	9.5653
0.9541	0.6843	9.5647
0.9523	0.6849	9.5623
0.9523	0.6855	9.5629
0.9529	0.6843	9.5635
0.9541	0.6849	9.5671
0.9547	0.6867	9.5647
0.9541	0.6873	9.5635
0.9529	0.6861	9.5629
0.9529	0.6873	9.5653
0.9529	0.6873	9.5677
0.9523	0.6873	9.5671
0.9505	0.6873	9.5659
0.9505	0.6861	9.5671
0.9529	0.6867	9.5677
0.9547	0.6861	9.5677
0.9565	0.6843	9.5653
0.9541	0.6837	9.5647
0.9547	0.6849	9.5647
0.9547	0.6861	9.5629
0.9565	0.6879	9.5617
0.9583	0.6873	9.5647
0.9583	0.6867	9.5653
0.9589	0.6855	9.5647
0.9595	0.6843	9.5659
0.9595	0.6849	9.5647
0.9583	0.6867	9.5677
0.9559	0.6879	9.5677
0.9553	0.6873	9.5659
0.9577	0.6873	9.5671
0.9601	0.6855	9.5647
0.9601	0.6855	9.5641
0.9595	0.6873	9.5659
0.9589	0.6885	9.5659
0.9601	0.6873	9.5665
0.9583	0.6843	9.5677
0.9541	0.6825	9.5671
0.9535	0.6831	9.5665
0.9517	0.6831	9.5659
0.9523	0.6820	9.5688
0.9547	0.6814	9.5688
0.9583	0.6825	9.5682
0.9589	0.6808	9.5659
0.9559	0.6820	9.5641
0.9559	0.6831	9.5653
0.9571	0.6825	9.5635
0.9571	0.6837	9.5617
0.9559	0.6855	9.5605
0.9553	0.6849	9.5611
0.9547	0.6849	9.5635
0.9553	0.6837	9.5665
0.9565	0.6837	9.5677
0.9553	0.6843	9.5677
0.9517	0.6849	9.5665
0.9499	0.6861	9.5659
0.9517	0.6867	9.5665
0.9553	0.6873	9.5671
0.9559	0.6861	9.5700
0.9571	0.6855	9.5694
0.9547	0.6849	9.5671
0.9523	0.6849	9.5659
0.9541	0.6843	9.5682
0.9553	0.6843	9.5694
0.9583	0.6849	9.5700
0.9589	0.6855	9.5671
0.9607	0.6855	9.5671
0.9607	0.6861	9.5671
0.9595	0.6843	9.5677
0.9577	0.6855	9.5671
0.9535	0.6855	9.5688
0.9547	0.6849	9.5671
0.9547	0.6861	9.5665
0.9565	0.6873	9.5682
0.9565	0.6879	9.5659
0.9541	0.6879	9.5629
0.9541	0.6867	9.5623
0.9559	0.6867	9.5635
0.9559	0.6873	9.5665
0.9577	0.6861	9.5682
0.9589	0.6843	9.5665
0.9595	0.6831	9.5694
0.9601	0.6837	9.5706
0.9607	0.6843	9.5688
0.9601	0.6849	9.5694
0.9577	0.6843	9.5665
0.9589	0.6843	9.5647
0.9577	0.6843	9.5647
0.9565	0.6855	9.5635
0.9565	0.6855	9.5617
0.9547	0.6855	9.5617
0.9547	0.6861	9.5647
0.9559	0.6879	9.5647
0.9559	0.6897	9.5641
0.9571	0.6897	9.5623
0.9553	0.6891	9.5617
0.9553	0.6879	9.5617
0.9553	0.6861	9.5623
0.9547	0.6837	9.5635
0.9559	0.6831	9.5617
0.9583	0.6843	9.5617
0.9607	0.6837	9.5635
0.9613	0.6843	9.5623
0.9613	0.6855	9.5599
0.9607	0.6861	9.5587
0.9571	0.6855	9.5587
0.9565	0.6861	9.5641
0.9559	0.6861	9.5641
0.9559	0.6849	9.5641
0.9553	0.6855	9.5629
0.9565	0.6867	9.5623
0.9565	0.6849	9.5641
0.9559	0.6855	9.5635
0.9559	0.6855	9.5617
0.9553	0.6855	9.5623
0.9565	0.6849	9.5653
0.9565	0.6831	9.5671
0.9553	0.6814	9.5700
0.9553	0.6820	9.5706
0.9565	0.6831	9.5682
0.9571	0.6831	9.5677
0.9553	0.6825	9.5677
0.9559	0.6820	9.5665
0.9559	0.6802	9.5653
0.9559	0.6814	9.5665
0.9571	0.6808	9.5682
0.9583	0.6802	9.5700
0.9565	0.6802	9.5706
0.9571	0.6814	9.5677
0.9547	0.6831	9.5647
0.9535	0.6849	9.5629
0.9529	0.6849	9.5617
0.9529	0.6849	9.5605
0.9535	0.6861	9.5599
0.9523	0.6873	9.5593
0.9535	0.6867	9.5611
0.9535	0.6885	9.5647
0.9517	0.6885	9.5629
0.9505	0.6885	9.5623
0.9523	0.6879	9.5611
0.9547	0.6867	9.5611
0.9541	0.6843	9.5635
0.9559	0.6849	9.5665
0.9565	0.6837	9.5653
0.9553	0.6843	9.5647
0.9547	0.6849	9.5647
0.9559	0.6831	9.5641
0.9553	0.6831	9.5647
0.9559	0.6837	9.5647
0.9559	0.6843	9.5635
0.9535	0.6843	9.5659
0.9547	0.6843	9.5653
0.9547	0.6843	9.5623
0.9535	0.6831	9.5623
0.9553	0.6843	9.5641
0.9553	0.6849	9.5647
0.9541	0.6849	9.5671
0.9535	0.6861	9.5665
0.9517	0.6855	9.5653
0.9505	0.6855	9.5665
0.9529	0.6885	9.5659
0.9541	0.6873	9.5665
0.9553	0.6861	9.5688
0.9535	0.6873	9.5682
0.9505	0.6891	9.5677
0.9523	0.6891	9.5706
0.9535	0.6879	9.5694
0.9541	0.6873	9.5700
0.9541	0.6867	9.5682
0.9553	0.6867	9.5659
0.9523	0.6873	9.5653
0.9517	0.6867	9.5653
0.9505	0.6873	9.5635
0.9487	0.6879	9.5623
0.9487	0.6879	9.5635
0.9487	0.6897	9.5605
0.9493	0.6891	9.5617
0.9517	0.6873	9.5623
0.9511	0.6879	9.5641
0.9499	0.6891	9.5635
0.9517	0.6897	9.5641
0.9541	0.6867	9.5641
0.9553	0.6855	9.5653
0.9565	0.6837	9.5653
0.9577	0.6831	9.5653
0.9553	0.6831	9.5641
0.9541	0.6831	9.5629
0.9535	0.6837	9.5647
0.9535	0.6831	9.5677
0.9553	0.6855	9.5659
0.9541	0.6861	9.5647
0.9529	0.6879	9.5623
0.9499	0.6879	9.5623
0.9487	0.6885	9.5635
0.9499	0.6885	9.5653
0.9535	0.6885	9.5671
0.9535	0.6879	9.5659
0.9529	0.6873	9.5647
0.9541	0.6861	9.5665
0.9523	0.6867	9.5677
0.9523	0.6855	9.5665
0.9541	0.6843	9.5659
0.9535	0.6825	9.5665
0.9547	0.6820	9.5653
0.9565	0.6814	9.5653
0.9583	0.6808	9.5659
0.9577	0.6814	9.5653
0.9547	0.6814	9.5647
0.9547	0.6814	9.5647
0.9553	0.6825	9.5665
0.9547	0.6831	9.5665
0.9535	0.6849	9.5647
0.9517	0.6861	9.5623
0.9511	0.6867	9.5617
0.9505	0.6873	9.5611
0.9517	0.6885	9.5605
0.9523	0.6885	9.5599
0.9523	0.6885	9.5611
0.9553	0.6879	9.5623
0.9559	0.6873	9.5623
0.9577	0.6873	9.5617
0.9583	0.6873	9.5623
0.9565	0.6891	9.5659
0.9565	0.6891	9.5653
0.9583	0.6891	9.5665
0.9589	0.6909	9.5694
0.9595	0.6909	9.5706
0.9601	0.6897	9.5700
0.9607	0.6885	9.5677
0.9613	0.6867	9.5659
0.9601	0.6867	9.5665
0.9589	0.6873	9.5659
0.9583	0.6885	9.5641
0.9577	0.6891	9.5635
0.9559	0.6897	9.5629
0.9571	0.6897	9.5623
0.9583	0.6879	9.5629
0.9595	0.6861	9.5653
0.9589	0.6843	9.5653
0.9553	0.6849	9.5635
0.9547	0.6855	9.5641
0.9565	0.6861	9.5659
0.9553	0.6879	9.5671
0.9529	0.6891	9.5653
0.9493	0.6873	9.5653
0.9505	0.6873	9.5665
0.9535	0.6873	9.5647
0.9535	0.6867	9.5653
0.9553	0.6873	9.5677
0.9529	0.6879	9.5671
0.9517	0.6867	9.5659
0.9511	0.6861	9.5647
0.9511	0.6849	9.5629
0.9523	0.6843	9.5659
0.9523	0.6849	9.5665
0.9511	0.6849	9.5641

